onset	duration	trial_type	response_time	confidence	task	stimulus	response	key_id	include	uid	trial_number
0.00	5.00	instructions	n/a	n/a	1	n/a	n/a	n/a	n/a	n/a	n/a
10.02	4.00	YY	0.89	3	1	1	1	n/a	0	601	1
10.93	0	button press	n/a	n/a	n/a	n/a	n/a	50	n/a	n/a	-100
18.08	4.00	NY	0.95	4	1	0	1	n/a	0	602	2
19.03	0	button press	n/a	n/a	n/a	n/a	n/a	50	n/a	n/a	-100
19.97	0	button press	n/a	n/a	n/a	n/a	n/a	54	n/a	n/a	-100
20.37	0	button press	n/a	n/a	n/a	n/a	n/a	54	n/a	n/a	-100
20.70	0	button press	n/a	n/a	n/a	n/a	n/a	54	n/a	n/a	-100
24.65	4.00	NY	0.88	2	1	0	1	n/a	0	603	3
25.53	0	button press	n/a	n/a	n/a	n/a	n/a	50	n/a	n/a	-100
26.57	0	button press	n/a	n/a	n/a	n/a	n/a	55	n/a	n/a	-100
26.87	0	button press	n/a	n/a	n/a	n/a	n/a	54	n/a	n/a	-100
30.27	4.00	NY	0.95	3	1	0	1	n/a	0	604	4
31.22	0	button press	n/a	n/a	n/a	n/a	n/a	50	n/a	n/a	-100
32.20	0	button press	n/a	n/a	n/a	n/a	n/a	54	n/a	n/a	-100
39.12	4.00	NN	0.98	5	1	0	0	n/a	0	605	5
40.10	0	button press	n/a	n/a	n/a	n/a	n/a	51	n/a	n/a	-100
40.93	0	button press	n/a	n/a	n/a	n/a	n/a	54	n/a	n/a	-100
41.30	0	button press	n/a	n/a	n/a	n/a	n/a	55	n/a	n/a	-100
47.56	4.00	NN	1.02	4	1	0	0	n/a	0	606	6
48.58	0	button press	n/a	n/a	n/a	n/a	n/a	51	n/a	n/a	-100
49.42	0	button press	n/a	n/a	n/a	n/a	n/a	55	n/a	n/a	-100
49.77	0	button press	n/a	n/a	n/a	n/a	n/a	54	n/a	n/a	-100
50.00	0	button press	n/a	n/a	n/a	n/a	n/a	54	n/a	n/a	-100
50.44	0	button press	n/a	n/a	n/a	n/a	n/a	54	n/a	n/a	-100
56.37	4.00	YY	0.97	3	1	1	1	n/a	0	607	7
57.33	0	button press	n/a	n/a	n/a	n/a	n/a	50	n/a	n/a	-100
58.43	0	button press	n/a	n/a	n/a	n/a	n/a	55	n/a	n/a	-100
62.77	4.00	NY	0.93	4	1	0	1	n/a	0	608	8
63.70	0	button press	n/a	n/a	n/a	n/a	n/a	50	n/a	n/a	-100
64.65	0	button press	n/a	n/a	n/a	n/a	n/a	54	n/a	n/a	-100
65.11	0	button press	n/a	n/a	n/a	n/a	n/a	55	n/a	n/a	-100
65.63	0	button press	n/a	n/a	n/a	n/a	n/a	55	n/a	n/a	-100
69.21	4.00	NN	1.02	3	1	0	0	n/a	0	609	9
70.23	0	button press	n/a	n/a	n/a	n/a	n/a	51	n/a	n/a	-100
71.40	0	button press	n/a	n/a	n/a	n/a	n/a	54	n/a	n/a	-100
71.82	0	button press	n/a	n/a	n/a	n/a	n/a	54	n/a	n/a	-100
76.55	4.00	YN	0.98	4	1	1	0	n/a	0	610	10
77.53	0	button press	n/a	n/a	n/a	n/a	n/a	51	n/a	n/a	-100
79.27	0	button press	n/a	n/a	n/a	n/a	n/a	55	n/a	n/a	-100
79.95	0	button press	n/a	n/a	n/a	n/a	n/a	54	n/a	n/a	-100
84.70	4.00	YN	0.92	5	1	1	0	n/a	0	611	11
85.62	0	button press	n/a	n/a	n/a	n/a	n/a	51	n/a	n/a	-100
86.63	0	button press	n/a	n/a	n/a	n/a	n/a	54	n/a	n/a	-100
86.97	0	button press	n/a	n/a	n/a	n/a	n/a	54	n/a	n/a	-100
92.70	4.00	YN	0.92	5	1	1	0	n/a	0	612	12
93.62	0	button press	n/a	n/a	n/a	n/a	n/a	51	n/a	n/a	-100
94.62	0	button press	n/a	n/a	n/a	n/a	n/a	54	n/a	n/a	-100
94.93	0	button press	n/a	n/a	n/a	n/a	n/a	54	n/a	n/a	-100
100.48	4.00	NN	0.90	6	1	0	0	n/a	0	613	13
101.38	0	button press	n/a	n/a	n/a	n/a	n/a	51	n/a	n/a	-100
102.33	0	button press	n/a	n/a	n/a	n/a	n/a	54	n/a	n/a	-100
102.70	0	button press	n/a	n/a	n/a	n/a	n/a	54	n/a	n/a	-100
108.45	4.00	NY	1.02	2	1	0	1	n/a	0	614	14
109.47	0	button press	n/a	n/a	n/a	n/a	n/a	50	n/a	n/a	-100
116.65	4.00	NN	0.98	5	1	0	0	n/a	0	615	15
117.63	0	button press	n/a	n/a	n/a	n/a	n/a	51	n/a	n/a	-100
118.53	0	button press	n/a	n/a	n/a	n/a	n/a	54	n/a	n/a	-100
123.88	4.00	YN	1.05	5	1	1	0	n/a	0	616	16
124.93	0	button press	n/a	n/a	n/a	n/a	n/a	51	n/a	n/a	-100
125.77	0	button press	n/a	n/a	n/a	n/a	n/a	54	n/a	n/a	-100
126.07	0	button press	n/a	n/a	n/a	n/a	n/a	54	n/a	n/a	-100
126.32	0	button press	n/a	n/a	n/a	n/a	n/a	54	n/a	n/a	-100
126.53	0	button press	n/a	n/a	n/a	n/a	n/a	54	n/a	n/a	-100
132.33	4.00	YN	0.88	6	1	1	0	n/a	0	617	17
133.21	0	button press	n/a	n/a	n/a	n/a	n/a	51	n/a	n/a	-100
134.28	0	button press	n/a	n/a	n/a	n/a	n/a	54	n/a	n/a	-100
134.58	0	button press	n/a	n/a	n/a	n/a	n/a	54	n/a	n/a	-100
135.30	0	button press	n/a	n/a	n/a	n/a	n/a	54	n/a	n/a	-100
135.65	0	button press	n/a	n/a	n/a	n/a	n/a	54	n/a	n/a	-100
138.73	4.00	NY	0.75	2	1	0	1	n/a	0	618	18
139.48	0	button press	n/a	n/a	n/a	n/a	n/a	50	n/a	n/a	-100
140.60	0	button press	n/a	n/a	n/a	n/a	n/a	54	n/a	n/a	-100
141.87	0	button press	n/a	n/a	n/a	n/a	n/a	55	n/a	n/a	-100
144.78	4.00	YY	1.04	2	1	1	1	n/a	0	619	19
145.82	0	button press	n/a	n/a	n/a	n/a	n/a	50	n/a	n/a	-100
146.82	0	button press	n/a	n/a	n/a	n/a	n/a	55	n/a	n/a	-100
147.07	0	button press	n/a	n/a	n/a	n/a	n/a	55	n/a	n/a	-100
147.30	0	button press	n/a	n/a	n/a	n/a	n/a	55	n/a	n/a	-100
147.80	0	button press	n/a	n/a	n/a	n/a	n/a	55	n/a	n/a	-100
153.87	4.00	YN	1.15	4	1	1	0	n/a	0	620	20
155.02	0	button press	n/a	n/a	n/a	n/a	n/a	51	n/a	n/a	-100
156.25	0	button press	n/a	n/a	n/a	n/a	n/a	54	n/a	n/a	-100
159.75	4.00	NN	1.15	2	1	0	0	n/a	0	621	21
160.90	0	button press	n/a	n/a	n/a	n/a	n/a	51	n/a	n/a	-100
161.95	0	button press	n/a	n/a	n/a	n/a	n/a	54	n/a	n/a	-100
167.28	4.00	YY	1.33	3	1	1	1	n/a	0	622	22
168.21	0	button press	n/a	n/a	n/a	n/a	n/a	54	n/a	n/a	-100
168.62	0	button press	n/a	n/a	n/a	n/a	n/a	50	n/a	n/a	-100
170.22	0	button press	n/a	n/a	n/a	n/a	n/a	54	n/a	n/a	-100
170.85	0	button press	n/a	n/a	n/a	n/a	n/a	55	n/a	n/a	-100
175.67	4.00	YN	1.18	4	1	1	0	n/a	0	623	23
176.85	0	button press	n/a	n/a	n/a	n/a	n/a	51	n/a	n/a	-100
177.80	0	button press	n/a	n/a	n/a	n/a	n/a	55	n/a	n/a	-100
178.17	0	button press	n/a	n/a	n/a	n/a	n/a	55	n/a	n/a	-100
183.38	4.00	YN	0.97	4	1	1	0	n/a	0	624	24
184.35	0	button press	n/a	n/a	n/a	n/a	n/a	51	n/a	n/a	-100
185.87	0	button press	n/a	n/a	n/a	n/a	n/a	54	n/a	n/a	-100
186.23	0	button press	n/a	n/a	n/a	n/a	n/a	54	n/a	n/a	-100
190.78	4.00	YY	1.05	4	1	1	1	n/a	0	625	25
191.83	0	button press	n/a	n/a	n/a	n/a	n/a	50	n/a	n/a	-100
192.95	0	button press	n/a	n/a	n/a	n/a	n/a	55	n/a	n/a	-100
198.55	4.00	NY	1.02	3	1	0	1	n/a	0	626	26
199.57	0	button press	n/a	n/a	n/a	n/a	n/a	50	n/a	n/a	-100
200.75	0	button press	n/a	n/a	n/a	n/a	n/a	54	n/a	n/a	-100
201.08	0	button press	n/a	n/a	n/a	n/a	n/a	54	n/a	n/a	-100
203.55	5.00	instructions	n/a	n/a	0	n/a	n/a	n/a	n/a	n/a	n/a
215.57	4.00	AA	0.98	5	0	0	0	n/a	0	627	27
216.55	0	button press	n/a	n/a	n/a	n/a	n/a	51	n/a	n/a	-100
217.53	0	button press	n/a	n/a	n/a	n/a	n/a	54	n/a	n/a	-100
217.82	0	button press	n/a	n/a	n/a	n/a	n/a	54	n/a	n/a	-100
218.03	0	button press	n/a	n/a	n/a	n/a	n/a	54	n/a	n/a	-100
218.25	0	button press	n/a	n/a	n/a	n/a	n/a	54	n/a	n/a	-100
224.45	4.00	CC	1.13	5	0	1	1	n/a	1	628	28
225.58	0	button press	n/a	n/a	n/a	n/a	n/a	50	n/a	n/a	-100
230.40	4.00	CC	1.02	6	0	1	1	n/a	1	629	29
231.42	0	button press	n/a	n/a	n/a	n/a	n/a	50	n/a	n/a	-100
232.90	0	button press	n/a	n/a	n/a	n/a	n/a	54	n/a	n/a	-100
238.25	4.00	CC	1.00	5	0	1	1	n/a	1	630	30
239.25	0	button press	n/a	n/a	n/a	n/a	n/a	50	n/a	n/a	-100
240.12	0	button press	n/a	n/a	n/a	n/a	n/a	54	n/a	n/a	-100
240.42	0	button press	n/a	n/a	n/a	n/a	n/a	54	n/a	n/a	-100
240.63	0	button press	n/a	n/a	n/a	n/a	n/a	54	n/a	n/a	-100
240.83	0	button press	n/a	n/a	n/a	n/a	n/a	54	n/a	n/a	-100
245.73	4.00	AA	1.15	5	0	0	0	n/a	1	631	31
246.88	0	button press	n/a	n/a	n/a	n/a	n/a	51	n/a	n/a	-100
247.88	0	button press	n/a	n/a	n/a	n/a	n/a	54	n/a	n/a	-100
248.32	0	button press	n/a	n/a	n/a	n/a	n/a	54	n/a	n/a	-100
254.77	4.00	AA	1.05	4	0	0	0	n/a	1	632	32
255.82	0	button press	n/a	n/a	n/a	n/a	n/a	51	n/a	n/a	-100
257.25	0	button press	n/a	n/a	n/a	n/a	n/a	54	n/a	n/a	-100
262.65	4.00	AA	1.00	4	0	0	0	n/a	1	633	33
263.65	0	button press	n/a	n/a	n/a	n/a	n/a	51	n/a	n/a	-100
265.35	0	button press	n/a	n/a	n/a	n/a	n/a	54	n/a	n/a	-100
268.60	4.00	AA	1.15	5	0	0	0	n/a	1	634	34
269.75	0	button press	n/a	n/a	n/a	n/a	n/a	51	n/a	n/a	-100
270.70	0	button press	n/a	n/a	n/a	n/a	n/a	54	n/a	n/a	-100
271.05	0	button press	n/a	n/a	n/a	n/a	n/a	54	n/a	n/a	-100
271.43	0	button press	n/a	n/a	n/a	n/a	n/a	54	n/a	n/a	-100
276.83	4.00	CC	1.02	4	0	1	1	n/a	1	635	35
277.85	0	button press	n/a	n/a	n/a	n/a	n/a	50	n/a	n/a	-100
278.75	0	button press	n/a	n/a	n/a	n/a	n/a	54	n/a	n/a	-100
279.16	0	button press	n/a	n/a	n/a	n/a	n/a	54	n/a	n/a	-100
283.72	4.00	CC	1.07	3	0	1	1	n/a	1	636	36
284.78	0	button press	n/a	n/a	n/a	n/a	n/a	50	n/a	n/a	-100
285.77	0	button press	n/a	n/a	n/a	n/a	n/a	55	n/a	n/a	-100
286.22	0	button press	n/a	n/a	n/a	n/a	n/a	55	n/a	n/a	-100
289.48	4.00	CC	0.93	4	0	1	1	n/a	1	637	37
290.42	0	button press	n/a	n/a	n/a	n/a	n/a	50	n/a	n/a	-100
291.60	0	button press	n/a	n/a	n/a	n/a	n/a	55	n/a	n/a	-100
291.93	0	button press	n/a	n/a	n/a	n/a	n/a	55	n/a	n/a	-100
295.13	4.00	CC	0.83	5	0	1	1	n/a	1	638	38
295.97	0	button press	n/a	n/a	n/a	n/a	n/a	50	n/a	n/a	-100
303.23	4.00	CC	1.03	4	0	1	1	n/a	1	639	39
304.27	0	button press	n/a	n/a	n/a	n/a	n/a	50	n/a	n/a	-100
305.38	0	button press	n/a	n/a	n/a	n/a	n/a	54	n/a	n/a	-100
306.30	0	button press	n/a	n/a	n/a	n/a	n/a	54	n/a	n/a	-100
309.20	4.00	AA	0.85	6	0	0	0	n/a	1	640	40
310.05	0	button press	n/a	n/a	n/a	n/a	n/a	51	n/a	n/a	-100
311.08	0	button press	n/a	n/a	n/a	n/a	n/a	54	n/a	n/a	-100
311.58	0	button press	n/a	n/a	n/a	n/a	n/a	54	n/a	n/a	-100
318.27	4.00	AA	0.93	4	0	0	0	n/a	1	641	41
319.20	0	button press	n/a	n/a	n/a	n/a	n/a	51	n/a	n/a	-100
320.68	0	button press	n/a	n/a	n/a	n/a	n/a	55	n/a	n/a	-100
321.25	0	button press	n/a	n/a	n/a	n/a	n/a	55	n/a	n/a	-100
326.95	4.00	AA	1.05	5	0	0	0	n/a	1	642	42
328.00	0	button press	n/a	n/a	n/a	n/a	n/a	51	n/a	n/a	-100
329.03	0	button press	n/a	n/a	n/a	n/a	n/a	54	n/a	n/a	-100
329.35	0	button press	n/a	n/a	n/a	n/a	n/a	54	n/a	n/a	-100
329.97	0	button press	n/a	n/a	n/a	n/a	n/a	54	n/a	n/a	-100
334.88	4.00	CC	1.13	4	0	1	1	n/a	1	643	43
336.02	0	button press	n/a	n/a	n/a	n/a	n/a	50	n/a	n/a	-100
337.37	0	button press	n/a	n/a	n/a	n/a	n/a	55	n/a	n/a	-100
338.13	0	button press	n/a	n/a	n/a	n/a	n/a	55	n/a	n/a	-100
343.62	4.00	CC	0.90	5	0	1	1	n/a	1	644	44
344.52	0	button press	n/a	n/a	n/a	n/a	n/a	50	n/a	n/a	-100
345.78	0	button press	n/a	n/a	n/a	n/a	n/a	55	n/a	n/a	-100
352.07	4.00	AA	0.87	5	0	0	0	n/a	1	645	45
352.93	0	button press	n/a	n/a	n/a	n/a	n/a	51	n/a	n/a	-100
354.15	0	button press	n/a	n/a	n/a	n/a	n/a	54	n/a	n/a	-100
354.39	0	button press	n/a	n/a	n/a	n/a	n/a	54	n/a	n/a	-100
354.60	0	button press	n/a	n/a	n/a	n/a	n/a	54	n/a	n/a	-100
355.30	0	button press	n/a	n/a	n/a	n/a	n/a	54	n/a	n/a	-100
358.50	4.00	CC	1.15	4	0	1	1	n/a	1	646	46
359.65	0	button press	n/a	n/a	n/a	n/a	n/a	50	n/a	n/a	-100
362.08	0	button press	n/a	n/a	n/a	n/a	n/a	55	n/a	n/a	-100
366.32	4.00	AA	1.30	6	0	0	0	n/a	1	647	47
367.62	0	button press	n/a	n/a	n/a	n/a	n/a	51	n/a	n/a	-100
368.18	0	button press	n/a	n/a	n/a	n/a	n/a	54	n/a	n/a	-100
368.56	0	button press	n/a	n/a	n/a	n/a	n/a	54	n/a	n/a	-100
372.42	4.00	CC	1.08	3	0	1	1	n/a	1	648	48
373.50	0	button press	n/a	n/a	n/a	n/a	n/a	50	n/a	n/a	-100
374.40	0	button press	n/a	n/a	n/a	n/a	n/a	55	n/a	n/a	-100
374.67	0	button press	n/a	n/a	n/a	n/a	n/a	55	n/a	n/a	-100
374.92	0	button press	n/a	n/a	n/a	n/a	n/a	55	n/a	n/a	-100
380.00	4.00	CC	1.07	4	0	1	1	n/a	1	649	49
381.07	0	button press	n/a	n/a	n/a	n/a	n/a	50	n/a	n/a	-100
382.18	0	button press	n/a	n/a	n/a	n/a	n/a	54	n/a	n/a	-100
382.67	0	button press	n/a	n/a	n/a	n/a	n/a	54	n/a	n/a	-100
382.97	0	button press	n/a	n/a	n/a	n/a	n/a	54	n/a	n/a	-100
388.18	4.00	AA	0.93	3	0	0	0	n/a	1	650	50
389.12	0	button press	n/a	n/a	n/a	n/a	n/a	51	n/a	n/a	-100
390.65	0	button press	n/a	n/a	n/a	n/a	n/a	54	n/a	n/a	-100
391.10	0	button press	n/a	n/a	n/a	n/a	n/a	54	n/a	n/a	-100
394.18	4.00	AA	0.92	5	0	0	0	n/a	1	651	51
395.10	0	button press	n/a	n/a	n/a	n/a	n/a	51	n/a	n/a	-100
396.05	0	button press	n/a	n/a	n/a	n/a	n/a	54	n/a	n/a	-100
396.38	0	button press	n/a	n/a	n/a	n/a	n/a	54	n/a	n/a	-100
401.25	4.00	AA	1.48	5	0	0	0	n/a	1	652	52
402.07	0	button press	n/a	n/a	n/a	n/a	n/a	51	n/a	n/a	-100
402.73	0	button press	n/a	n/a	n/a	n/a	n/a	51	n/a	n/a	-100
403.38	0	button press	n/a	n/a	n/a	n/a	n/a	54	n/a	n/a	-100
403.62	0	button press	n/a	n/a	n/a	n/a	n/a	54	n/a	n/a	-100
403.82	0	button press	n/a	n/a	n/a	n/a	n/a	54	n/a	n/a	-100
404.32	0	button press	n/a	n/a	n/a	n/a	n/a	54	n/a	n/a	-100
406.25	5.00	instructions	n/a	n/a	2	n/a	n/a	n/a	n/a	n/a	n/a
419.08	4.00	VV	0.81	5	2	0	0	n/a	0	653	53
419.90	0	button press	n/a	n/a	n/a	n/a	n/a	50	n/a	n/a	-100
421.17	0	button press	n/a	n/a	n/a	n/a	n/a	55	n/a	n/a	-100
424.97	4.00	TV	1.40	4	2	1	0	n/a	1	654	54
426.36	0	button press	n/a	n/a	n/a	n/a	n/a	50	n/a	n/a	-100
427.52	0	button press	n/a	n/a	n/a	n/a	n/a	54	n/a	n/a	-100
431.00	4.00	TT	1.00	4	2	1	1	n/a	1	655	55
432.00	0	button press	n/a	n/a	n/a	n/a	n/a	51	n/a	n/a	-100
433.08	0	button press	n/a	n/a	n/a	n/a	n/a	54	n/a	n/a	-100
439.08	4.00	TT	0.85	6	2	1	1	n/a	1	656	56
439.93	0	button press	n/a	n/a	n/a	n/a	n/a	51	n/a	n/a	-100
440.63	0	button press	n/a	n/a	n/a	n/a	n/a	54	n/a	n/a	-100
440.95	0	button press	n/a	n/a	n/a	n/a	n/a	54	n/a	n/a	-100
441.17	0	button press	n/a	n/a	n/a	n/a	n/a	54	n/a	n/a	-100
446.52	4.00	VV	0.88	3	2	0	0	n/a	1	657	57
447.40	0	button press	n/a	n/a	n/a	n/a	n/a	50	n/a	n/a	-100
448.70	0	button press	n/a	n/a	n/a	n/a	n/a	55	n/a	n/a	-100
450.33	0	button press	n/a	n/a	n/a	n/a	n/a	55	n/a	n/a	-100
452.87	4.00	VV	0.97	3	2	0	0	n/a	1	658	58
453.83	0	button press	n/a	n/a	n/a	n/a	n/a	50	n/a	n/a	-100
455.10	0	button press	n/a	n/a	n/a	n/a	n/a	55	n/a	n/a	-100
455.53	0	button press	n/a	n/a	n/a	n/a	n/a	55	n/a	n/a	-100
456.62	0	button press	n/a	n/a	n/a	n/a	n/a	55	n/a	n/a	-100
460.02	4.00	TT	1.10	4	2	1	1	n/a	1	659	59
461.12	0	button press	n/a	n/a	n/a	n/a	n/a	51	n/a	n/a	-100
462.28	0	button press	n/a	n/a	n/a	n/a	n/a	55	n/a	n/a	-100
467.43	4.00	missed_trial	n/a	n/a	2	0	n/a	n/a	1	660	60
468.96	0	button press	n/a	n/a	n/a	n/a	n/a	50	n/a	n/a	-100
475.06	4.00	VV	0.94	2	2	0	0	n/a	1	661	61
476.00	0	button press	n/a	n/a	n/a	n/a	n/a	50	n/a	n/a	-100
477.00	0	button press	n/a	n/a	n/a	n/a	n/a	55	n/a	n/a	-100
477.25	0	button press	n/a	n/a	n/a	n/a	n/a	55	n/a	n/a	-100
477.50	0	button press	n/a	n/a	n/a	n/a	n/a	55	n/a	n/a	-100
477.90	0	button press	n/a	n/a	n/a	n/a	n/a	55	n/a	n/a	-100
481.50	4.00	VV	0.97	2	2	0	0	n/a	1	662	62
482.47	0	button press	n/a	n/a	n/a	n/a	n/a	50	n/a	n/a	-100
483.50	0	button press	n/a	n/a	n/a	n/a	n/a	55	n/a	n/a	-100
483.83	0	button press	n/a	n/a	n/a	n/a	n/a	55	n/a	n/a	-100
489.53	4.00	VV	1.22	1	2	0	0	n/a	1	663	63
490.75	0	button press	n/a	n/a	n/a	n/a	n/a	50	n/a	n/a	-100
491.83	0	button press	n/a	n/a	n/a	n/a	n/a	55	n/a	n/a	-100
492.22	0	button press	n/a	n/a	n/a	n/a	n/a	55	n/a	n/a	-100
495.55	4.00	TT	0.85	6	2	1	1	n/a	1	664	64
496.40	0	button press	n/a	n/a	n/a	n/a	n/a	51	n/a	n/a	-100
497.48	0	button press	n/a	n/a	n/a	n/a	n/a	54	n/a	n/a	-100
497.77	0	button press	n/a	n/a	n/a	n/a	n/a	54	n/a	n/a	-100
498.08	0	button press	n/a	n/a	n/a	n/a	n/a	54	n/a	n/a	-100
503.42	4.00	TT	0.85	6	2	1	1	n/a	1	665	65
504.27	0	button press	n/a	n/a	n/a	n/a	n/a	51	n/a	n/a	-100
505.22	0	button press	n/a	n/a	n/a	n/a	n/a	54	n/a	n/a	-100
505.50	0	button press	n/a	n/a	n/a	n/a	n/a	54	n/a	n/a	-100
505.73	0	button press	n/a	n/a	n/a	n/a	n/a	54	n/a	n/a	-100
510.27	4.00	VV	0.92	5	2	0	0	n/a	1	666	66
511.18	0	button press	n/a	n/a	n/a	n/a	n/a	50	n/a	n/a	-100
512.23	0	button press	n/a	n/a	n/a	n/a	n/a	54	n/a	n/a	-100
517.92	4.00	VT	1.12	2	2	0	1	n/a	1	667	67
519.03	0	button press	n/a	n/a	n/a	n/a	n/a	51	n/a	n/a	-100
520.45	0	button press	n/a	n/a	n/a	n/a	n/a	55	n/a	n/a	-100
520.77	0	button press	n/a	n/a	n/a	n/a	n/a	55	n/a	n/a	-100
520.95	0	button press	n/a	n/a	n/a	n/a	n/a	55	n/a	n/a	-100
524.30	4.00	TV	1.18	1	2	1	0	n/a	1	668	68
525.48	0	button press	n/a	n/a	n/a	n/a	n/a	50	n/a	n/a	-100
526.25	0	button press	n/a	n/a	n/a	n/a	n/a	55	n/a	n/a	-100
526.52	0	button press	n/a	n/a	n/a	n/a	n/a	55	n/a	n/a	-100
532.35	4.00	TT	1.40	6	2	1	1	n/a	1	669	69
533.18	0	button press	n/a	n/a	n/a	n/a	n/a	51	n/a	n/a	-100
533.75	0	button press	n/a	n/a	n/a	n/a	n/a	51	n/a	n/a	-100
534.47	0	button press	n/a	n/a	n/a	n/a	n/a	54	n/a	n/a	-100
534.77	0	button press	n/a	n/a	n/a	n/a	n/a	54	n/a	n/a	-100
534.97	0	button press	n/a	n/a	n/a	n/a	n/a	54	n/a	n/a	-100
539.45	4.00	TT	1.03	3	2	1	1	n/a	1	670	70
540.48	0	button press	n/a	n/a	n/a	n/a	n/a	51	n/a	n/a	-100
548.10	4.00	VV	0.77	6	2	0	0	n/a	1	671	71
548.87	0	button press	n/a	n/a	n/a	n/a	n/a	50	n/a	n/a	-100
550.47	0	button press	n/a	n/a	n/a	n/a	n/a	55	n/a	n/a	-100
551.13	0	button press	n/a	n/a	n/a	n/a	n/a	54	n/a	n/a	-100
554.00	4.00	TT	0.87	5	2	1	1	n/a	1	672	72
554.87	0	button press	n/a	n/a	n/a	n/a	n/a	51	n/a	n/a	-100
556.20	0	button press	n/a	n/a	n/a	n/a	n/a	55	n/a	n/a	-100
556.60	0	button press	n/a	n/a	n/a	n/a	n/a	54	n/a	n/a	-100
561.88	4.00	VT	1.03	1	2	0	1	n/a	1	673	73
562.92	0	button press	n/a	n/a	n/a	n/a	n/a	51	n/a	n/a	-100
563.80	0	button press	n/a	n/a	n/a	n/a	n/a	55	n/a	n/a	-100
564.07	0	button press	n/a	n/a	n/a	n/a	n/a	55	n/a	n/a	-100
564.30	0	button press	n/a	n/a	n/a	n/a	n/a	55	n/a	n/a	-100
564.53	0	button press	n/a	n/a	n/a	n/a	n/a	55	n/a	n/a	-100
564.90	0	button press	n/a	n/a	n/a	n/a	n/a	55	n/a	n/a	-100
567.48	4.00	TT	0.95	5	2	1	1	n/a	1	674	74
568.43	0	button press	n/a	n/a	n/a	n/a	n/a	51	n/a	n/a	-100
569.50	0	button press	n/a	n/a	n/a	n/a	n/a	54	n/a	n/a	-100
569.80	0	button press	n/a	n/a	n/a	n/a	n/a	54	n/a	n/a	-100
570.05	0	button press	n/a	n/a	n/a	n/a	n/a	54	n/a	n/a	-100
574.52	4.00	TT	1.18	2	2	1	1	n/a	1	675	75
575.70	0	button press	n/a	n/a	n/a	n/a	n/a	51	n/a	n/a	-100
576.73	0	button press	n/a	n/a	n/a	n/a	n/a	55	n/a	n/a	-100
577.07	0	button press	n/a	n/a	n/a	n/a	n/a	55	n/a	n/a	-100
577.33	0	button press	n/a	n/a	n/a	n/a	n/a	55	n/a	n/a	-100
580.33	4.00	VV	0.92	4	2	0	0	n/a	1	676	76
581.25	0	button press	n/a	n/a	n/a	n/a	n/a	50	n/a	n/a	-100
582.52	0	button press	n/a	n/a	n/a	n/a	n/a	54	n/a	n/a	-100
582.78	0	button press	n/a	n/a	n/a	n/a	n/a	54	n/a	n/a	-100
586.07	4.00	TV	0.97	4	2	1	0	n/a	1	677	77
587.03	0	button press	n/a	n/a	n/a	n/a	n/a	50	n/a	n/a	-100
588.43	0	button press	n/a	n/a	n/a	n/a	n/a	54	n/a	n/a	-100
588.68	0	button press	n/a	n/a	n/a	n/a	n/a	54	n/a	n/a	-100
589.07	0	button press	n/a	n/a	n/a	n/a	n/a	54	n/a	n/a	-100
589.50	0	button press	n/a	n/a	n/a	n/a	n/a	55	n/a	n/a	-100
592.68	4.00	VV	1.05	5	2	0	0	n/a	1	678	78
593.73	0	button press	n/a	n/a	n/a	n/a	n/a	50	n/a	n/a	-100
594.55	0	button press	n/a	n/a	n/a	n/a	n/a	54	n/a	n/a	-100
594.78	0	button press	n/a	n/a	n/a	n/a	n/a	54	n/a	n/a	-100
595.00	0	button press	n/a	n/a	n/a	n/a	n/a	54	n/a	n/a	-100
595.20	0	button press	n/a	n/a	n/a	n/a	n/a	54	n/a	n/a	-100
