onset	duration	trial_type	response_time	confidence	task	stimulus	response	key_id	include	uid	trial_number
0.00	5.00	instructions	n/a	n/a	2	n/a	n/a	n/a	n/a	n/a	n/a
10.00	4.00	TT	0.87	6	2	1	1	n/a	0	6401	1
10.90	0	button press	n/a	n/a	n/a	n/a	n/a	51	n/a	n/a	-100
11.78	0	button press	n/a	n/a	n/a	n/a	n/a	55	n/a	n/a	-100
12.02	0	button press	n/a	n/a	n/a	n/a	n/a	55	n/a	n/a	-100
12.22	0	button press	n/a	n/a	n/a	n/a	n/a	55	n/a	n/a	-100
12.42	0	button press	n/a	n/a	n/a	n/a	n/a	55	n/a	n/a	-100
12.82	0	button press	n/a	n/a	n/a	n/a	n/a	55	n/a	n/a	-100
19.20	4.00	TT	0.91	6	2	1	1	n/a	1	6402	2
20.12	0	button press	n/a	n/a	n/a	n/a	n/a	51	n/a	n/a	-100
20.82	0	button press	n/a	n/a	n/a	n/a	n/a	55	n/a	n/a	-100
21.05	0	button press	n/a	n/a	n/a	n/a	n/a	55	n/a	n/a	-100
21.25	0	button press	n/a	n/a	n/a	n/a	n/a	55	n/a	n/a	-100
21.43	0	button press	n/a	n/a	n/a	n/a	n/a	55	n/a	n/a	-100
26.68	4.00	TT	0.92	6	2	1	1	n/a	1	6403	3
27.60	0	button press	n/a	n/a	n/a	n/a	n/a	51	n/a	n/a	-100
28.30	0	button press	n/a	n/a	n/a	n/a	n/a	55	n/a	n/a	-100
28.52	0	button press	n/a	n/a	n/a	n/a	n/a	55	n/a	n/a	-100
34.60	4.00	TT	0.93	6	2	1	1	n/a	1	6404	4
35.53	0	button press	n/a	n/a	n/a	n/a	n/a	51	n/a	n/a	-100
36.38	0	button press	n/a	n/a	n/a	n/a	n/a	55	n/a	n/a	-100
40.65	4.00	VV	1.00	5	2	0	0	n/a	1	6405	5
41.65	0	button press	n/a	n/a	n/a	n/a	n/a	50	n/a	n/a	-100
42.88	0	button press	n/a	n/a	n/a	n/a	n/a	55	n/a	n/a	-100
43.17	0	button press	n/a	n/a	n/a	n/a	n/a	55	n/a	n/a	-100
46.70	4.00	VV	1.03	5	2	0	0	n/a	1	6406	6
47.73	0	button press	n/a	n/a	n/a	n/a	n/a	50	n/a	n/a	-100
48.62	0	button press	n/a	n/a	n/a	n/a	n/a	55	n/a	n/a	-100
55.67	4.00	VV	0.82	5	2	0	0	n/a	1	6407	7
56.48	0	button press	n/a	n/a	n/a	n/a	n/a	50	n/a	n/a	-100
57.68	0	button press	n/a	n/a	n/a	n/a	n/a	55	n/a	n/a	-100
57.98	0	button press	n/a	n/a	n/a	n/a	n/a	55	n/a	n/a	-100
58.20	0	button press	n/a	n/a	n/a	n/a	n/a	55	n/a	n/a	-100
61.80	4.00	VV	0.95	4	2	0	0	n/a	1	6408	8
62.75	0	button press	n/a	n/a	n/a	n/a	n/a	50	n/a	n/a	-100
64.15	0	button press	n/a	n/a	n/a	n/a	n/a	55	n/a	n/a	-100
64.47	0	button press	n/a	n/a	n/a	n/a	n/a	55	n/a	n/a	-100
64.73	0	button press	n/a	n/a	n/a	n/a	n/a	55	n/a	n/a	-100
65.00	0	button press	n/a	n/a	n/a	n/a	n/a	55	n/a	n/a	-100
65.59	0	button press	n/a	n/a	n/a	n/a	n/a	54	n/a	n/a	-100
68.82	4.00	VV	1.02	4	2	0	0	n/a	1	6409	9
69.83	0	button press	n/a	n/a	n/a	n/a	n/a	50	n/a	n/a	-100
71.03	0	button press	n/a	n/a	n/a	n/a	n/a	54	n/a	n/a	-100
71.28	0	button press	n/a	n/a	n/a	n/a	n/a	54	n/a	n/a	-100
74.55	4.00	VV	1.10	3	2	0	0	n/a	1	6410	10
75.65	0	button press	n/a	n/a	n/a	n/a	n/a	50	n/a	n/a	-100
76.65	0	button press	n/a	n/a	n/a	n/a	n/a	55	n/a	n/a	-100
77.03	0	button press	n/a	n/a	n/a	n/a	n/a	55	n/a	n/a	-100
82.23	4.00	VV	0.92	4	2	0	0	n/a	1	6411	11
83.15	0	button press	n/a	n/a	n/a	n/a	n/a	50	n/a	n/a	-100
84.35	0	button press	n/a	n/a	n/a	n/a	n/a	55	n/a	n/a	-100
84.92	0	button press	n/a	n/a	n/a	n/a	n/a	55	n/a	n/a	-100
85.18	0	button press	n/a	n/a	n/a	n/a	n/a	55	n/a	n/a	-100
91.58	4.00	TT	0.87	6	2	1	1	n/a	1	6412	12
92.45	0	button press	n/a	n/a	n/a	n/a	n/a	51	n/a	n/a	-100
98.92	4.00	VV	0.87	6	2	0	0	n/a	1	6413	13
99.78	0	button press	n/a	n/a	n/a	n/a	n/a	50	n/a	n/a	-100
106.90	4.00	TT	0.82	6	2	1	1	n/a	1	6414	14
107.72	0	button press	n/a	n/a	n/a	n/a	n/a	51	n/a	n/a	-100
109.13	0	button press	n/a	n/a	n/a	n/a	n/a	55	n/a	n/a	-100
110.18	0	button press	n/a	n/a	n/a	n/a	n/a	55	n/a	n/a	-100
113.73	4.00	VV	0.87	6	2	0	0	n/a	1	6415	15
114.60	0	button press	n/a	n/a	n/a	n/a	n/a	50	n/a	n/a	-100
115.57	0	button press	n/a	n/a	n/a	n/a	n/a	55	n/a	n/a	-100
115.90	0	button press	n/a	n/a	n/a	n/a	n/a	55	n/a	n/a	-100
116.10	0	button press	n/a	n/a	n/a	n/a	n/a	55	n/a	n/a	-100
119.60	4.00	TT	0.80	6	2	1	1	n/a	1	6416	16
120.40	0	button press	n/a	n/a	n/a	n/a	n/a	51	n/a	n/a	-100
121.25	0	button press	n/a	n/a	n/a	n/a	n/a	55	n/a	n/a	-100
122.12	0	button press	n/a	n/a	n/a	n/a	n/a	55	n/a	n/a	-100
122.33	0	button press	n/a	n/a	n/a	n/a	n/a	55	n/a	n/a	-100
122.70	0	button press	n/a	n/a	n/a	n/a	n/a	55	n/a	n/a	-100
122.90	0	button press	n/a	n/a	n/a	n/a	n/a	55	n/a	n/a	-100
127.03	4.00	TV	0.98	3	2	1	0	n/a	1	6417	17
128.02	0	button press	n/a	n/a	n/a	n/a	n/a	50	n/a	n/a	-100
129.19	0	button press	n/a	n/a	n/a	n/a	n/a	55	n/a	n/a	-100
129.79	0	button press	n/a	n/a	n/a	n/a	n/a	54	n/a	n/a	-100
130.03	0	button press	n/a	n/a	n/a	n/a	n/a	54	n/a	n/a	-100
133.17	4.00	VV	0.98	1	2	0	0	n/a	1	6418	18
134.15	0	button press	n/a	n/a	n/a	n/a	n/a	50	n/a	n/a	-100
135.20	0	button press	n/a	n/a	n/a	n/a	n/a	54	n/a	n/a	-100
135.47	0	button press	n/a	n/a	n/a	n/a	n/a	54	n/a	n/a	-100
135.72	0	button press	n/a	n/a	n/a	n/a	n/a	54	n/a	n/a	-100
136.07	0	button press	n/a	n/a	n/a	n/a	n/a	54	n/a	n/a	-100
136.42	0	button press	n/a	n/a	n/a	n/a	n/a	54	n/a	n/a	-100
140.10	4.00	VV	1.00	5	2	0	0	n/a	1	6419	19
141.10	0	button press	n/a	n/a	n/a	n/a	n/a	50	n/a	n/a	-100
142.27	0	button press	n/a	n/a	n/a	n/a	n/a	55	n/a	n/a	-100
142.43	0	button press	n/a	n/a	n/a	n/a	n/a	55	n/a	n/a	-100
147.82	4.00	TT	1.05	3	2	1	1	n/a	1	6420	20
148.87	0	button press	n/a	n/a	n/a	n/a	n/a	51	n/a	n/a	-100
149.80	0	button press	n/a	n/a	n/a	n/a	n/a	55	n/a	n/a	-100
150.47	0	button press	n/a	n/a	n/a	n/a	n/a	55	n/a	n/a	-100
156.18	4.00	VV	0.90	6	2	0	0	n/a	1	6421	21
157.08	0	button press	n/a	n/a	n/a	n/a	n/a	50	n/a	n/a	-100
163.95	4.00	TT	0.97	5	2	1	1	n/a	1	6422	22
164.92	0	button press	n/a	n/a	n/a	n/a	n/a	51	n/a	n/a	-100
165.87	0	button press	n/a	n/a	n/a	n/a	n/a	55	n/a	n/a	-100
166.13	0	button press	n/a	n/a	n/a	n/a	n/a	55	n/a	n/a	-100
169.97	4.00	TT	1.22	5	2	1	1	n/a	1	6423	23
171.18	0	button press	n/a	n/a	n/a	n/a	n/a	51	n/a	n/a	-100
172.23	0	button press	n/a	n/a	n/a	n/a	n/a	54	n/a	n/a	-100
176.68	4.00	TV	0.97	5	2	1	0	n/a	1	6424	24
177.65	0	button press	n/a	n/a	n/a	n/a	n/a	50	n/a	n/a	-100
183.15	4.00	TV	0.85	4	2	1	0	n/a	1	6425	25
184.00	0	button press	n/a	n/a	n/a	n/a	n/a	50	n/a	n/a	-100
185.35	0	button press	n/a	n/a	n/a	n/a	n/a	55	n/a	n/a	-100
187.25	0	button press	n/a	n/a	n/a	n/a	n/a	54	n/a	n/a	-100
189.50	4.00	VV	0.90	5	2	0	0	n/a	1	6426	26
190.40	0	button press	n/a	n/a	n/a	n/a	n/a	50	n/a	n/a	-100
191.60	0	button press	n/a	n/a	n/a	n/a	n/a	55	n/a	n/a	-100
191.83	0	button press	n/a	n/a	n/a	n/a	n/a	55	n/a	n/a	-100
194.50	5.00	instructions	n/a	n/a	1	n/a	n/a	n/a	n/a	n/a	n/a
205.40	4.00	YN	1.03	4	1	1	0	n/a	0	6427	27
206.43	0	button press	n/a	n/a	n/a	n/a	n/a	50	n/a	n/a	-100
207.35	0	button press	n/a	n/a	n/a	n/a	n/a	55	n/a	n/a	-100
208.95	0	button press	n/a	n/a	n/a	n/a	n/a	55	n/a	n/a	-100
214.32	4.00	NY	1.17	2	1	0	1	n/a	1	6428	28
215.48	0	button press	n/a	n/a	n/a	n/a	n/a	51	n/a	n/a	-100
216.18	0	button press	n/a	n/a	n/a	n/a	n/a	54	n/a	n/a	-100
216.43	0	button press	n/a	n/a	n/a	n/a	n/a	54	n/a	n/a	-100
219.97	4.00	missed_trial	n/a	n/a	1	1	n/a	n/a	1	6429	29
228.30	4.00	NN	0.83	2	1	0	0	n/a	1	6430	30
229.13	0	button press	n/a	n/a	n/a	n/a	n/a	50	n/a	n/a	-100
235.27	4.00	NY	0.92	2	1	0	1	n/a	1	6431	31
236.18	0	button press	n/a	n/a	n/a	n/a	n/a	51	n/a	n/a	-100
238.70	0	button press	n/a	n/a	n/a	n/a	n/a	55	n/a	n/a	-100
238.92	0	button press	n/a	n/a	n/a	n/a	n/a	54	n/a	n/a	-100
240.88	4.00	YY	1.00	2	1	1	1	n/a	1	6432	32
241.88	0	button press	n/a	n/a	n/a	n/a	n/a	51	n/a	n/a	-100
243.12	0	button press	n/a	n/a	n/a	n/a	n/a	54	n/a	n/a	-100
243.35	0	button press	n/a	n/a	n/a	n/a	n/a	54	n/a	n/a	-100
248.03	4.00	NN	1.00	2	1	0	0	n/a	1	6433	33
249.03	0	button press	n/a	n/a	n/a	n/a	n/a	50	n/a	n/a	-100
250.52	0	button press	n/a	n/a	n/a	n/a	n/a	54	n/a	n/a	-100
250.77	0	button press	n/a	n/a	n/a	n/a	n/a	54	n/a	n/a	-100
256.58	4.00	NN	0.93	2	1	0	0	n/a	1	6434	34
257.52	0	button press	n/a	n/a	n/a	n/a	n/a	50	n/a	n/a	-100
265.75	4.00	YY	0.92	6	1	1	1	n/a	1	6435	35
266.67	0	button press	n/a	n/a	n/a	n/a	n/a	51	n/a	n/a	-100
267.60	0	button press	n/a	n/a	n/a	n/a	n/a	55	n/a	n/a	-100
268.30	0	button press	n/a	n/a	n/a	n/a	n/a	55	n/a	n/a	-100
271.95	4.00	YY	0.93	6	1	1	1	n/a	1	6436	36
272.88	0	button press	n/a	n/a	n/a	n/a	n/a	51	n/a	n/a	-100
273.57	0	button press	n/a	n/a	n/a	n/a	n/a	55	n/a	n/a	-100
273.83	0	button press	n/a	n/a	n/a	n/a	n/a	55	n/a	n/a	-100
274.03	0	button press	n/a	n/a	n/a	n/a	n/a	55	n/a	n/a	-100
274.87	0	button press	n/a	n/a	n/a	n/a	n/a	55	n/a	n/a	-100
275.08	0	button press	n/a	n/a	n/a	n/a	n/a	55	n/a	n/a	-100
280.23	4.00	YN	1.17	1	1	1	0	n/a	1	6437	37
281.40	0	button press	n/a	n/a	n/a	n/a	n/a	50	n/a	n/a	-100
282.75	0	button press	n/a	n/a	n/a	n/a	n/a	54	n/a	n/a	-100
283.02	0	button press	n/a	n/a	n/a	n/a	n/a	54	n/a	n/a	-100
288.13	4.00	YY	1.03	5	1	1	1	n/a	1	6438	38
289.17	0	button press	n/a	n/a	n/a	n/a	n/a	51	n/a	n/a	-100
291.20	0	button press	n/a	n/a	n/a	n/a	n/a	55	n/a	n/a	-100
297.62	4.00	NN	1.05	1	1	0	0	n/a	1	6439	39
298.67	0	button press	n/a	n/a	n/a	n/a	n/a	50	n/a	n/a	-100
300.22	0	button press	n/a	n/a	n/a	n/a	n/a	54	n/a	n/a	-100
300.48	0	button press	n/a	n/a	n/a	n/a	n/a	54	n/a	n/a	-100
303.42	4.00	YY	0.95	6	1	1	1	n/a	1	6440	40
304.37	0	button press	n/a	n/a	n/a	n/a	n/a	51	n/a	n/a	-100
305.20	0	button press	n/a	n/a	n/a	n/a	n/a	55	n/a	n/a	-100
305.42	0	button press	n/a	n/a	n/a	n/a	n/a	55	n/a	n/a	-100
309.02	4.00	NN	1.07	1	1	0	0	n/a	1	6441	41
310.08	0	button press	n/a	n/a	n/a	n/a	n/a	50	n/a	n/a	-100
310.98	0	button press	n/a	n/a	n/a	n/a	n/a	54	n/a	n/a	-100
311.20	0	button press	n/a	n/a	n/a	n/a	n/a	54	n/a	n/a	-100
317.73	4.00	NN	0.95	6	1	0	0	n/a	1	6442	42
318.68	0	button press	n/a	n/a	n/a	n/a	n/a	50	n/a	n/a	-100
319.38	0	button press	n/a	n/a	n/a	n/a	n/a	55	n/a	n/a	-100
320.73	0	button press	n/a	n/a	n/a	n/a	n/a	54	n/a	n/a	-100
320.92	0	button press	n/a	n/a	n/a	n/a	n/a	55	n/a	n/a	-100
326.77	4.00	NY	1.17	1	1	0	1	n/a	1	6443	43
327.93	0	button press	n/a	n/a	n/a	n/a	n/a	51	n/a	n/a	-100
328.67	0	button press	n/a	n/a	n/a	n/a	n/a	54	n/a	n/a	-100
328.88	0	button press	n/a	n/a	n/a	n/a	n/a	54	n/a	n/a	-100
335.92	4.00	NN	0.92	5	1	0	0	n/a	1	6444	44
336.83	0	button press	n/a	n/a	n/a	n/a	n/a	50	n/a	n/a	-100
342.72	4.00	NN	1.17	2	1	0	0	n/a	1	6445	45
343.88	0	button press	n/a	n/a	n/a	n/a	n/a	50	n/a	n/a	-100
345.10	0	button press	n/a	n/a	n/a	n/a	n/a	55	n/a	n/a	-100
348.85	4.00	YY	1.08	3	1	1	1	n/a	1	6446	46
349.93	0	button press	n/a	n/a	n/a	n/a	n/a	51	n/a	n/a	-100
355.85	4.00	YN	1.07	1	1	1	0	n/a	1	6447	47
356.92	0	button press	n/a	n/a	n/a	n/a	n/a	50	n/a	n/a	-100
362.00	4.00	YY	0.88	5	1	1	1	n/a	1	6448	48
362.88	0	button press	n/a	n/a	n/a	n/a	n/a	51	n/a	n/a	-100
365.10	0	button press	n/a	n/a	n/a	n/a	n/a	55	n/a	n/a	-100
370.68	4.00	NN	1.03	2	1	0	0	n/a	1	6449	49
371.72	0	button press	n/a	n/a	n/a	n/a	n/a	50	n/a	n/a	-100
372.75	0	button press	n/a	n/a	n/a	n/a	n/a	55	n/a	n/a	-100
373.30	0	button press	n/a	n/a	n/a	n/a	n/a	54	n/a	n/a	-100
373.50	0	button press	n/a	n/a	n/a	n/a	n/a	54	n/a	n/a	-100
373.70	0	button press	n/a	n/a	n/a	n/a	n/a	54	n/a	n/a	-100
373.87	0	button press	n/a	n/a	n/a	n/a	n/a	54	n/a	n/a	-100
379.17	4.00	YY	0.92	5	1	1	1	n/a	1	6450	50
380.08	0	button press	n/a	n/a	n/a	n/a	n/a	51	n/a	n/a	-100
380.97	0	button press	n/a	n/a	n/a	n/a	n/a	55	n/a	n/a	-100
382.60	0	button press	n/a	n/a	n/a	n/a	n/a	54	n/a	n/a	-100
387.95	4.00	YY	0.90	4	1	1	1	n/a	1	6451	51
388.85	0	button press	n/a	n/a	n/a	n/a	n/a	51	n/a	n/a	-100
391.32	0	button press	n/a	n/a	n/a	n/a	n/a	55	n/a	n/a	-100
391.60	0	button press	n/a	n/a	n/a	n/a	n/a	55	n/a	n/a	-100
396.95	4.00	NN	0.98	1	1	0	0	n/a	1	6452	52
397.93	0	button press	n/a	n/a	n/a	n/a	n/a	50	n/a	n/a	-100
398.78	0	button press	n/a	n/a	n/a	n/a	n/a	54	n/a	n/a	-100
399.00	0	button press	n/a	n/a	n/a	n/a	n/a	54	n/a	n/a	-100
399.18	0	button press	n/a	n/a	n/a	n/a	n/a	54	n/a	n/a	-100
399.37	0	button press	n/a	n/a	n/a	n/a	n/a	54	n/a	n/a	-100
401.95	5.00	instructions	n/a	n/a	0	n/a	n/a	n/a	n/a	n/a	n/a
412.77	4.00	AA	1.48	4	0	0	0	n/a	0	6453	53
414.25	0	button press	n/a	n/a	n/a	n/a	n/a	51	n/a	n/a	-100
415.22	0	button press	n/a	n/a	n/a	n/a	n/a	55	n/a	n/a	-100
415.40	0	button press	n/a	n/a	n/a	n/a	n/a	55	n/a	n/a	-100
416.12	0	button press	n/a	n/a	n/a	n/a	n/a	55	n/a	n/a	-100
421.78	4.00	CC	0.97	5	0	1	1	n/a	1	6454	54
422.75	0	button press	n/a	n/a	n/a	n/a	n/a	50	n/a	n/a	-100
423.53	0	button press	n/a	n/a	n/a	n/a	n/a	55	n/a	n/a	-100
430.57	4.00	AC	1.07	4	0	0	1	n/a	1	6455	55
431.63	0	button press	n/a	n/a	n/a	n/a	n/a	50	n/a	n/a	-100
432.80	0	button press	n/a	n/a	n/a	n/a	n/a	55	n/a	n/a	-100
433.07	0	button press	n/a	n/a	n/a	n/a	n/a	55	n/a	n/a	-100
433.20	0	button press	n/a	n/a	n/a	n/a	n/a	55	n/a	n/a	-100
437.92	4.00	AC	0.87	5	0	0	1	n/a	1	6456	56
438.78	0	button press	n/a	n/a	n/a	n/a	n/a	50	n/a	n/a	-100
440.15	0	button press	n/a	n/a	n/a	n/a	n/a	55	n/a	n/a	-100
440.55	0	button press	n/a	n/a	n/a	n/a	n/a	55	n/a	n/a	-100
441.65	0	button press	n/a	n/a	n/a	n/a	n/a	55	n/a	n/a	-100
444.52	4.00	CC	0.82	4	0	1	1	n/a	1	6457	57
445.33	0	button press	n/a	n/a	n/a	n/a	n/a	50	n/a	n/a	-100
446.25	0	button press	n/a	n/a	n/a	n/a	n/a	55	n/a	n/a	-100
446.82	0	button press	n/a	n/a	n/a	n/a	n/a	54	n/a	n/a	-100
447.40	0	button press	n/a	n/a	n/a	n/a	n/a	54	n/a	n/a	-100
450.97	4.00	missed_trial	n/a	n/a	0	1	n/a	n/a	1	6458	58
452.49	0	button press	n/a	n/a	n/a	n/a	n/a	50	n/a	n/a	-100
459.20	4.00	CC	0.80	3	0	1	1	n/a	1	6459	59
460.00	0	button press	n/a	n/a	n/a	n/a	n/a	50	n/a	n/a	-100
461.20	0	button press	n/a	n/a	n/a	n/a	n/a	55	n/a	n/a	-100
461.33	0	button press	n/a	n/a	n/a	n/a	n/a	55	n/a	n/a	-100
467.35	4.00	AA	1.00	1	0	0	0	n/a	1	6460	60
468.35	0	button press	n/a	n/a	n/a	n/a	n/a	51	n/a	n/a	-100
469.52	0	button press	n/a	n/a	n/a	n/a	n/a	54	n/a	n/a	-100
469.73	0	button press	n/a	n/a	n/a	n/a	n/a	54	n/a	n/a	-100
470.17	0	button press	n/a	n/a	n/a	n/a	n/a	54	n/a	n/a	-100
476.10	4.00	CC	1.07	2	0	1	1	n/a	1	6461	61
477.17	0	button press	n/a	n/a	n/a	n/a	n/a	50	n/a	n/a	-100
478.22	0	button press	n/a	n/a	n/a	n/a	n/a	54	n/a	n/a	-100
478.47	0	button press	n/a	n/a	n/a	n/a	n/a	54	n/a	n/a	-100
478.68	0	button press	n/a	n/a	n/a	n/a	n/a	54	n/a	n/a	-100
482.45	4.00	AA	0.93	4	0	0	0	n/a	1	6462	62
483.38	0	button press	n/a	n/a	n/a	n/a	n/a	51	n/a	n/a	-100
484.50	0	button press	n/a	n/a	n/a	n/a	n/a	54	n/a	n/a	-100
485.05	0	button press	n/a	n/a	n/a	n/a	n/a	55	n/a	n/a	-100
491.42	4.00	CC	1.15	2	0	1	1	n/a	1	6463	63
492.57	0	button press	n/a	n/a	n/a	n/a	n/a	50	n/a	n/a	-100
493.40	0	button press	n/a	n/a	n/a	n/a	n/a	54	n/a	n/a	-100
493.60	0	button press	n/a	n/a	n/a	n/a	n/a	54	n/a	n/a	-100
493.82	0	button press	n/a	n/a	n/a	n/a	n/a	54	n/a	n/a	-100
494.02	0	button press	n/a	n/a	n/a	n/a	n/a	54	n/a	n/a	-100
500.03	4.00	AC	1.03	1	0	0	1	n/a	1	6464	64
501.07	0	button press	n/a	n/a	n/a	n/a	n/a	50	n/a	n/a	-100
507.15	4.00	AC	0.82	2	0	0	1	n/a	1	6465	65
507.97	0	button press	n/a	n/a	n/a	n/a	n/a	50	n/a	n/a	-100
513.07	4.00	CC	0.88	2	0	1	1	n/a	1	6466	66
513.95	0	button press	n/a	n/a	n/a	n/a	n/a	50	n/a	n/a	-100
515.65	0	button press	n/a	n/a	n/a	n/a	n/a	54	n/a	n/a	-100
520.85	4.00	AC	0.90	2	0	0	1	n/a	1	6467	67
521.75	0	button press	n/a	n/a	n/a	n/a	n/a	50	n/a	n/a	-100
523.23	0	button press	n/a	n/a	n/a	n/a	n/a	54	n/a	n/a	-100
527.10	4.00	CC	0.87	3	0	1	1	n/a	1	6468	68
527.97	0	button press	n/a	n/a	n/a	n/a	n/a	50	n/a	n/a	-100
529.15	0	button press	n/a	n/a	n/a	n/a	n/a	54	n/a	n/a	-100
529.40	0	button press	n/a	n/a	n/a	n/a	n/a	54	n/a	n/a	-100
529.63	0	button press	n/a	n/a	n/a	n/a	n/a	54	n/a	n/a	-100
529.87	0	button press	n/a	n/a	n/a	n/a	n/a	54	n/a	n/a	-100
531.05	0	button press	n/a	n/a	n/a	n/a	n/a	55	n/a	n/a	-100
534.62	4.00	CC	0.85	2	0	1	1	n/a	1	6469	69
535.47	0	button press	n/a	n/a	n/a	n/a	n/a	50	n/a	n/a	-100
536.98	0	button press	n/a	n/a	n/a	n/a	n/a	54	n/a	n/a	-100
541.98	4.00	CA	0.97	1	0	1	0	n/a	1	6470	70
542.95	0	button press	n/a	n/a	n/a	n/a	n/a	51	n/a	n/a	-100
544.13	0	button press	n/a	n/a	n/a	n/a	n/a	54	n/a	n/a	-100
544.42	0	button press	n/a	n/a	n/a	n/a	n/a	54	n/a	n/a	-100
544.62	0	button press	n/a	n/a	n/a	n/a	n/a	54	n/a	n/a	-100
548.33	4.00	CA	1.15	1	0	1	0	n/a	1	6471	71
549.48	0	button press	n/a	n/a	n/a	n/a	n/a	51	n/a	n/a	-100
550.77	0	button press	n/a	n/a	n/a	n/a	n/a	54	n/a	n/a	-100
550.98	0	button press	n/a	n/a	n/a	n/a	n/a	54	n/a	n/a	-100
555.12	4.00	CA	1.37	1	0	1	0	n/a	1	6472	72
556.48	0	button press	n/a	n/a	n/a	n/a	n/a	51	n/a	n/a	-100
557.28	0	button press	n/a	n/a	n/a	n/a	n/a	54	n/a	n/a	-100
557.53	0	button press	n/a	n/a	n/a	n/a	n/a	54	n/a	n/a	-100
557.73	0	button press	n/a	n/a	n/a	n/a	n/a	54	n/a	n/a	-100
557.93	0	button press	n/a	n/a	n/a	n/a	n/a	54	n/a	n/a	-100
561.88	4.00	AA	0.98	3	0	0	0	n/a	1	6473	73
562.87	0	button press	n/a	n/a	n/a	n/a	n/a	51	n/a	n/a	-100
565.00	0	button press	n/a	n/a	n/a	n/a	n/a	55	n/a	n/a	-100
568.10	4.00	CC	0.92	4	0	1	1	n/a	1	6474	74
569.02	0	button press	n/a	n/a	n/a	n/a	n/a	50	n/a	n/a	-100
570.07	0	button press	n/a	n/a	n/a	n/a	n/a	54	n/a	n/a	-100
570.33	0	button press	n/a	n/a	n/a	n/a	n/a	54	n/a	n/a	-100
573.77	4.00	AC	0.97	2	0	0	1	n/a	1	6475	75
574.73	0	button press	n/a	n/a	n/a	n/a	n/a	50	n/a	n/a	-100
575.52	0	button press	n/a	n/a	n/a	n/a	n/a	54	n/a	n/a	-100
575.75	0	button press	n/a	n/a	n/a	n/a	n/a	54	n/a	n/a	-100
575.95	0	button press	n/a	n/a	n/a	n/a	n/a	54	n/a	n/a	-100
576.13	0	button press	n/a	n/a	n/a	n/a	n/a	54	n/a	n/a	-100
580.90	4.00	AA	1.00	3	0	0	0	n/a	1	6476	76
581.90	0	button press	n/a	n/a	n/a	n/a	n/a	51	n/a	n/a	-100
583.07	0	button press	n/a	n/a	n/a	n/a	n/a	55	n/a	n/a	-100
583.35	0	button press	n/a	n/a	n/a	n/a	n/a	55	n/a	n/a	-100
583.60	0	button press	n/a	n/a	n/a	n/a	n/a	55	n/a	n/a	-100
584.68	0	button press	n/a	n/a	n/a	n/a	n/a	54	n/a	n/a	-100
587.27	4.00	AA	0.83	4	0	0	0	n/a	1	6477	77
588.10	0	button press	n/a	n/a	n/a	n/a	n/a	51	n/a	n/a	-100
589.50	0	button press	n/a	n/a	n/a	n/a	n/a	54	n/a	n/a	-100
590.43	0	button press	n/a	n/a	n/a	n/a	n/a	54	n/a	n/a	-100
593.80	4.00	AA	0.95	4	0	0	0	n/a	1	6478	78
594.75	0	button press	n/a	n/a	n/a	n/a	n/a	51	n/a	n/a	-100
596.10	0	button press	n/a	n/a	n/a	n/a	n/a	55	n/a	n/a	-100
