onset	duration	trial_type	response_time	confidence	task	stimulus	response	key_id	include	uid	trial_number
0.00	5.00	instructions	n/a	n/a	2	n/a	n/a	n/a	n/a	n/a	n/a
10.02	4.00	TT	0.87	6	2	1	1	n/a	0	13001	1
10.92	0	button press	n/a	n/a	n/a	n/a	n/a	50	n/a	n/a	-100
11.95	0	button press	n/a	n/a	n/a	n/a	n/a	54	n/a	n/a	-100
12.20	0	button press	n/a	n/a	n/a	n/a	n/a	54	n/a	n/a	-100
12.48	0	button press	n/a	n/a	n/a	n/a	n/a	54	n/a	n/a	-100
12.75	0	button press	n/a	n/a	n/a	n/a	n/a	54	n/a	n/a	-100
13.03	0	button press	n/a	n/a	n/a	n/a	n/a	54	n/a	n/a	-100
18.72	4.00	VV	0.96	3	2	0	0	n/a	1	13002	2
19.68	0	button press	n/a	n/a	n/a	n/a	n/a	51	n/a	n/a	-100
25.63	4.00	TT	1.00	4	2	1	1	n/a	1	13003	3
26.63	0	button press	n/a	n/a	n/a	n/a	n/a	50	n/a	n/a	-100
28.77	0	button press	n/a	n/a	n/a	n/a	n/a	54	n/a	n/a	-100
33.67	4.00	VV	0.93	4	2	0	0	n/a	1	13004	4
34.60	0	button press	n/a	n/a	n/a	n/a	n/a	51	n/a	n/a	-100
35.88	0	button press	n/a	n/a	n/a	n/a	n/a	54	n/a	n/a	-100
36.30	0	button press	n/a	n/a	n/a	n/a	n/a	54	n/a	n/a	-100
42.30	4.00	TV	0.98	3	2	1	0	n/a	1	13005	5
43.28	0	button press	n/a	n/a	n/a	n/a	n/a	51	n/a	n/a	-100
44.32	0	button press	n/a	n/a	n/a	n/a	n/a	55	n/a	n/a	-100
45.00	0	button press	n/a	n/a	n/a	n/a	n/a	55	n/a	n/a	-100
48.62	4.00	VT	1.02	1	2	0	1	n/a	1	13006	6
49.63	0	button press	n/a	n/a	n/a	n/a	n/a	50	n/a	n/a	-100
50.57	0	button press	n/a	n/a	n/a	n/a	n/a	55	n/a	n/a	-100
50.83	0	button press	n/a	n/a	n/a	n/a	n/a	55	n/a	n/a	-100
51.10	0	button press	n/a	n/a	n/a	n/a	n/a	55	n/a	n/a	-100
51.37	0	button press	n/a	n/a	n/a	n/a	n/a	55	n/a	n/a	-100
56.37	4.00	VV	0.98	4	2	0	0	n/a	1	13007	7
57.35	0	button press	n/a	n/a	n/a	n/a	n/a	51	n/a	n/a	-100
58.72	0	button press	n/a	n/a	n/a	n/a	n/a	55	n/a	n/a	-100
62.50	4.00	VV	0.98	4	2	0	0	n/a	1	13008	8
63.48	0	button press	n/a	n/a	n/a	n/a	n/a	51	n/a	n/a	-100
64.85	0	button press	n/a	n/a	n/a	n/a	n/a	54	n/a	n/a	-100
71.22	4.00	TT	0.87	5	2	1	1	n/a	1	13009	9
72.08	0	button press	n/a	n/a	n/a	n/a	n/a	50	n/a	n/a	-100
73.18	0	button press	n/a	n/a	n/a	n/a	n/a	54	n/a	n/a	-100
73.52	0	button press	n/a	n/a	n/a	n/a	n/a	54	n/a	n/a	-100
73.85	0	button press	n/a	n/a	n/a	n/a	n/a	54	n/a	n/a	-100
78.43	4.00	VV	1.00	2	2	0	0	n/a	1	13010	10
79.43	0	button press	n/a	n/a	n/a	n/a	n/a	51	n/a	n/a	-100
80.72	0	button press	n/a	n/a	n/a	n/a	n/a	54	n/a	n/a	-100
84.57	4.00	TT	0.87	6	2	1	1	n/a	1	13011	11
85.43	0	button press	n/a	n/a	n/a	n/a	n/a	50	n/a	n/a	-100
86.40	0	button press	n/a	n/a	n/a	n/a	n/a	54	n/a	n/a	-100
86.73	0	button press	n/a	n/a	n/a	n/a	n/a	54	n/a	n/a	-100
91.45	4.00	VV	1.12	3	2	0	0	n/a	1	13012	12
92.57	0	button press	n/a	n/a	n/a	n/a	n/a	51	n/a	n/a	-100
94.40	0	button press	n/a	n/a	n/a	n/a	n/a	54	n/a	n/a	-100
98.12	4.00	VV	1.03	2	2	0	0	n/a	1	13013	13
99.15	0	button press	n/a	n/a	n/a	n/a	n/a	51	n/a	n/a	-100
100.87	0	button press	n/a	n/a	n/a	n/a	n/a	54	n/a	n/a	-100
104.32	4.00	TT	0.95	3	2	1	1	n/a	1	13014	14
105.27	0	button press	n/a	n/a	n/a	n/a	n/a	50	n/a	n/a	-100
106.50	0	button press	n/a	n/a	n/a	n/a	n/a	54	n/a	n/a	-100
110.68	4.00	VV	0.92	4	2	0	0	n/a	1	13015	15
111.60	0	button press	n/a	n/a	n/a	n/a	n/a	51	n/a	n/a	-100
116.78	4.00	VV	0.99	4	2	0	0	n/a	1	13016	16
117.77	0	button press	n/a	n/a	n/a	n/a	n/a	51	n/a	n/a	-100
123.68	4.00	TT	0.93	3	2	1	1	n/a	1	13017	17
124.62	0	button press	n/a	n/a	n/a	n/a	n/a	50	n/a	n/a	-100
126.02	0	button press	n/a	n/a	n/a	n/a	n/a	54	n/a	n/a	-100
126.32	0	button press	n/a	n/a	n/a	n/a	n/a	54	n/a	n/a	-100
131.87	4.00	TT	0.87	6	2	1	1	n/a	1	13018	18
132.73	0	button press	n/a	n/a	n/a	n/a	n/a	50	n/a	n/a	-100
133.65	0	button press	n/a	n/a	n/a	n/a	n/a	54	n/a	n/a	-100
139.20	4.00	TT	0.95	6	2	1	1	n/a	1	13019	19
140.15	0	button press	n/a	n/a	n/a	n/a	n/a	50	n/a	n/a	-100
147.18	4.00	TT	1.00	5	2	1	1	n/a	1	13020	20
148.18	0	button press	n/a	n/a	n/a	n/a	n/a	50	n/a	n/a	-100
149.47	0	button press	n/a	n/a	n/a	n/a	n/a	54	n/a	n/a	-100
154.97	4.00	TT	1.00	5	2	1	1	n/a	1	13021	21
155.97	0	button press	n/a	n/a	n/a	n/a	n/a	50	n/a	n/a	-100
157.05	0	button press	n/a	n/a	n/a	n/a	n/a	54	n/a	n/a	-100
157.38	0	button press	n/a	n/a	n/a	n/a	n/a	54	n/a	n/a	-100
157.73	0	button press	n/a	n/a	n/a	n/a	n/a	54	n/a	n/a	-100
158.10	0	button press	n/a	n/a	n/a	n/a	n/a	54	n/a	n/a	-100
161.13	4.00	TT	0.92	5	2	1	1	n/a	1	13022	22
162.05	0	button press	n/a	n/a	n/a	n/a	n/a	50	n/a	n/a	-100
163.10	0	button press	n/a	n/a	n/a	n/a	n/a	54	n/a	n/a	-100
163.42	0	button press	n/a	n/a	n/a	n/a	n/a	54	n/a	n/a	-100
163.77	0	button press	n/a	n/a	n/a	n/a	n/a	54	n/a	n/a	-100
164.18	0	button press	n/a	n/a	n/a	n/a	n/a	54	n/a	n/a	-100
168.50	4.00	TT	1.00	6	2	1	1	n/a	1	13023	23
169.50	0	button press	n/a	n/a	n/a	n/a	n/a	50	n/a	n/a	-100
170.40	0	button press	n/a	n/a	n/a	n/a	n/a	54	n/a	n/a	-100
170.70	0	button press	n/a	n/a	n/a	n/a	n/a	54	n/a	n/a	-100
171.02	0	button press	n/a	n/a	n/a	n/a	n/a	54	n/a	n/a	-100
171.37	0	button press	n/a	n/a	n/a	n/a	n/a	54	n/a	n/a	-100
175.42	4.00	VV	1.27	4	2	0	0	n/a	1	13024	24
176.68	0	button press	n/a	n/a	n/a	n/a	n/a	51	n/a	n/a	-100
177.55	0	button press	n/a	n/a	n/a	n/a	n/a	54	n/a	n/a	-100
177.95	0	button press	n/a	n/a	n/a	n/a	n/a	54	n/a	n/a	-100
178.93	0	button press	n/a	n/a	n/a	n/a	n/a	54	n/a	n/a	-100
183.78	4.00	VV	1.05	4	2	0	0	n/a	1	13025	25
184.83	0	button press	n/a	n/a	n/a	n/a	n/a	51	n/a	n/a	-100
185.97	0	button press	n/a	n/a	n/a	n/a	n/a	55	n/a	n/a	-100
186.37	0	button press	n/a	n/a	n/a	n/a	n/a	55	n/a	n/a	-100
192.05	4.00	VV	0.97	4	2	0	0	n/a	1	13026	26
193.02	0	button press	n/a	n/a	n/a	n/a	n/a	51	n/a	n/a	-100
194.40	0	button press	n/a	n/a	n/a	n/a	n/a	54	n/a	n/a	-100
194.80	0	button press	n/a	n/a	n/a	n/a	n/a	54	n/a	n/a	-100
197.05	5.00	instructions	n/a	n/a	1	n/a	n/a	n/a	n/a	n/a	n/a
208.87	4.00	YY	0.92	6	1	1	1	n/a	0	13027	27
209.78	0	button press	n/a	n/a	n/a	n/a	n/a	50	n/a	n/a	-100
215.25	4.00	NN	0.88	5	1	0	0	n/a	1	13028	28
216.13	0	button press	n/a	n/a	n/a	n/a	n/a	51	n/a	n/a	-100
217.38	0	button press	n/a	n/a	n/a	n/a	n/a	54	n/a	n/a	-100
218.32	0	button press	n/a	n/a	n/a	n/a	n/a	54	n/a	n/a	-100
223.03	4.00	YY	0.92	4	1	1	1	n/a	1	13029	29
223.95	0	button press	n/a	n/a	n/a	n/a	n/a	50	n/a	n/a	-100
231.27	4.00	NN	0.93	4	1	0	0	n/a	1	13030	30
232.20	0	button press	n/a	n/a	n/a	n/a	n/a	51	n/a	n/a	-100
234.30	0	button press	n/a	n/a	n/a	n/a	n/a	54	n/a	n/a	-100
239.25	4.00	NN	0.95	5	1	0	0	n/a	1	13031	31
240.20	0	button press	n/a	n/a	n/a	n/a	n/a	51	n/a	n/a	-100
242.22	0	button press	n/a	n/a	n/a	n/a	n/a	54	n/a	n/a	-100
246.70	4.00	YN	1.13	3	1	1	0	n/a	1	13032	32
247.83	0	button press	n/a	n/a	n/a	n/a	n/a	51	n/a	n/a	-100
248.75	0	button press	n/a	n/a	n/a	n/a	n/a	55	n/a	n/a	-100
249.20	0	button press	n/a	n/a	n/a	n/a	n/a	55	n/a	n/a	-100
249.58	0	button press	n/a	n/a	n/a	n/a	n/a	55	n/a	n/a	-100
254.53	4.00	NY	0.97	1	1	0	1	n/a	1	13033	33
255.50	0	button press	n/a	n/a	n/a	n/a	n/a	50	n/a	n/a	-100
262.52	4.00	NN	1.07	2	1	0	0	n/a	1	13034	34
263.58	0	button press	n/a	n/a	n/a	n/a	n/a	51	n/a	n/a	-100
269.00	4.00	NN	0.98	2	1	0	0	n/a	1	13035	35
269.98	0	button press	n/a	n/a	n/a	n/a	n/a	51	n/a	n/a	-100
271.05	0	button press	n/a	n/a	n/a	n/a	n/a	55	n/a	n/a	-100
276.17	4.00	NY	0.97	1	1	0	1	n/a	1	13036	36
277.13	0	button press	n/a	n/a	n/a	n/a	n/a	50	n/a	n/a	-100
278.17	0	button press	n/a	n/a	n/a	n/a	n/a	55	n/a	n/a	-100
284.90	4.00	YY	0.93	4	1	1	1	n/a	1	13037	37
285.83	0	button press	n/a	n/a	n/a	n/a	n/a	50	n/a	n/a	-100
286.93	0	button press	n/a	n/a	n/a	n/a	n/a	54	n/a	n/a	-100
287.32	0	button press	n/a	n/a	n/a	n/a	n/a	54	n/a	n/a	-100
292.20	4.00	YN	1.15	3	1	1	0	n/a	1	13038	38
293.35	0	button press	n/a	n/a	n/a	n/a	n/a	51	n/a	n/a	-100
297.82	4.00	NN	1.17	2	1	0	0	n/a	1	13039	39
298.98	0	button press	n/a	n/a	n/a	n/a	n/a	51	n/a	n/a	-100
299.88	0	button press	n/a	n/a	n/a	n/a	n/a	55	n/a	n/a	-100
300.77	0	button press	n/a	n/a	n/a	n/a	n/a	55	n/a	n/a	-100
306.50	4.00	YY	1.00	2	1	1	1	n/a	1	13040	40
307.50	0	button press	n/a	n/a	n/a	n/a	n/a	50	n/a	n/a	-100
308.68	0	button press	n/a	n/a	n/a	n/a	n/a	55	n/a	n/a	-100
309.50	0	button press	n/a	n/a	n/a	n/a	n/a	55	n/a	n/a	-100
312.53	4.00	NN	0.93	3	1	0	0	n/a	1	13041	41
313.47	0	button press	n/a	n/a	n/a	n/a	n/a	51	n/a	n/a	-100
314.72	0	button press	n/a	n/a	n/a	n/a	n/a	55	n/a	n/a	-100
315.15	0	button press	n/a	n/a	n/a	n/a	n/a	55	n/a	n/a	-100
320.23	4.00	YY	0.92	3	1	1	1	n/a	1	13042	42
321.15	0	button press	n/a	n/a	n/a	n/a	n/a	50	n/a	n/a	-100
323.12	0	button press	n/a	n/a	n/a	n/a	n/a	55	n/a	n/a	-100
327.78	4.00	YY	0.97	2	1	1	1	n/a	1	13043	43
328.75	0	button press	n/a	n/a	n/a	n/a	n/a	50	n/a	n/a	-100
329.70	0	button press	n/a	n/a	n/a	n/a	n/a	55	n/a	n/a	-100
330.08	0	button press	n/a	n/a	n/a	n/a	n/a	55	n/a	n/a	-100
330.47	0	button press	n/a	n/a	n/a	n/a	n/a	55	n/a	n/a	-100
331.13	0	button press	n/a	n/a	n/a	n/a	n/a	55	n/a	n/a	-100
333.87	4.00	NN	1.12	2	1	0	0	n/a	1	13044	44
334.98	0	button press	n/a	n/a	n/a	n/a	n/a	51	n/a	n/a	-100
335.92	0	button press	n/a	n/a	n/a	n/a	n/a	55	n/a	n/a	-100
336.25	0	button press	n/a	n/a	n/a	n/a	n/a	55	n/a	n/a	-100
336.60	0	button press	n/a	n/a	n/a	n/a	n/a	55	n/a	n/a	-100
337.13	0	button press	n/a	n/a	n/a	n/a	n/a	55	n/a	n/a	-100
340.55	4.00	YY	0.90	6	1	1	1	n/a	1	13045	45
341.45	0	button press	n/a	n/a	n/a	n/a	n/a	50	n/a	n/a	-100
342.43	0	button press	n/a	n/a	n/a	n/a	n/a	54	n/a	n/a	-100
342.77	0	button press	n/a	n/a	n/a	n/a	n/a	54	n/a	n/a	-100
343.13	0	button press	n/a	n/a	n/a	n/a	n/a	54	n/a	n/a	-100
347.62	4.00	YN	1.03	1	1	1	0	n/a	1	13046	46
348.65	0	button press	n/a	n/a	n/a	n/a	n/a	51	n/a	n/a	-100
355.32	4.00	YY	0.93	4	1	1	1	n/a	1	13047	47
356.25	0	button press	n/a	n/a	n/a	n/a	n/a	50	n/a	n/a	-100
363.47	4.00	YY	0.93	3	1	1	1	n/a	1	13048	48
364.40	0	button press	n/a	n/a	n/a	n/a	n/a	50	n/a	n/a	-100
365.70	0	button press	n/a	n/a	n/a	n/a	n/a	55	n/a	n/a	-100
370.63	4.00	YY	0.98	3	1	1	1	n/a	1	13049	49
371.62	0	button press	n/a	n/a	n/a	n/a	n/a	50	n/a	n/a	-100
372.58	0	button press	n/a	n/a	n/a	n/a	n/a	55	n/a	n/a	-100
373.08	0	button press	n/a	n/a	n/a	n/a	n/a	55	n/a	n/a	-100
379.27	4.00	NN	1.07	1	1	0	0	n/a	1	13050	50
380.33	0	button press	n/a	n/a	n/a	n/a	n/a	51	n/a	n/a	-100
387.95	4.00	NN	1.18	1	1	0	0	n/a	1	13051	51
389.13	0	button press	n/a	n/a	n/a	n/a	n/a	51	n/a	n/a	-100
395.58	4.00	NY	1.07	1	1	0	1	n/a	1	13052	52
396.65	0	button press	n/a	n/a	n/a	n/a	n/a	50	n/a	n/a	-100
397.58	0	button press	n/a	n/a	n/a	n/a	n/a	55	n/a	n/a	-100
400.58	5.00	instructions	n/a	n/a	0	n/a	n/a	n/a	n/a	n/a	n/a
413.55	4.00	CC	1.00	4	0	1	1	n/a	0	13053	53
414.55	0	button press	n/a	n/a	n/a	n/a	n/a	50	n/a	n/a	-100
415.90	0	button press	n/a	n/a	n/a	n/a	n/a	54	n/a	n/a	-100
421.45	4.00	AA	1.02	2	0	0	0	n/a	1	13054	54
422.47	0	button press	n/a	n/a	n/a	n/a	n/a	51	n/a	n/a	-100
423.37	0	button press	n/a	n/a	n/a	n/a	n/a	55	n/a	n/a	-100
423.78	0	button press	n/a	n/a	n/a	n/a	n/a	55	n/a	n/a	-100
428.90	4.00	AA	1.00	3	0	0	0	n/a	1	13055	55
429.90	0	button press	n/a	n/a	n/a	n/a	n/a	51	n/a	n/a	-100
436.92	4.00	AA	1.08	3	0	0	0	n/a	1	13056	56
438.00	0	button press	n/a	n/a	n/a	n/a	n/a	51	n/a	n/a	-100
439.70	0	button press	n/a	n/a	n/a	n/a	n/a	54	n/a	n/a	-100
445.13	4.00	CC	1.05	5	0	1	1	n/a	1	13057	57
446.18	0	button press	n/a	n/a	n/a	n/a	n/a	50	n/a	n/a	-100
447.18	0	button press	n/a	n/a	n/a	n/a	n/a	54	n/a	n/a	-100
447.62	0	button press	n/a	n/a	n/a	n/a	n/a	54	n/a	n/a	-100
452.03	4.00	CA	1.07	1	0	1	0	n/a	1	13058	58
453.10	0	button press	n/a	n/a	n/a	n/a	n/a	51	n/a	n/a	-100
459.38	4.00	CA	1.22	1	0	1	0	n/a	1	13059	59
460.60	0	button press	n/a	n/a	n/a	n/a	n/a	51	n/a	n/a	-100
461.28	0	button press	n/a	n/a	n/a	n/a	n/a	55	n/a	n/a	-100
461.63	0	button press	n/a	n/a	n/a	n/a	n/a	55	n/a	n/a	-100
467.95	4.00	CC	1.07	1	0	1	1	n/a	1	13060	60
469.02	0	button press	n/a	n/a	n/a	n/a	n/a	50	n/a	n/a	-100
470.08	0	button press	n/a	n/a	n/a	n/a	n/a	55	n/a	n/a	-100
470.47	0	button press	n/a	n/a	n/a	n/a	n/a	55	n/a	n/a	-100
470.83	0	button press	n/a	n/a	n/a	n/a	n/a	55	n/a	n/a	-100
471.18	0	button press	n/a	n/a	n/a	n/a	n/a	55	n/a	n/a	-100
473.55	4.00	CA	1.08	1	0	1	0	n/a	1	13061	61
474.63	0	button press	n/a	n/a	n/a	n/a	n/a	51	n/a	n/a	-100
475.50	0	button press	n/a	n/a	n/a	n/a	n/a	55	n/a	n/a	-100
475.87	0	button press	n/a	n/a	n/a	n/a	n/a	55	n/a	n/a	-100
476.23	0	button press	n/a	n/a	n/a	n/a	n/a	55	n/a	n/a	-100
481.32	4.00	CC	1.28	3	0	1	1	n/a	1	13062	62
482.60	0	button press	n/a	n/a	n/a	n/a	n/a	50	n/a	n/a	-100
490.07	4.00	AA	0.93	2	0	0	0	n/a	1	13063	63
491.00	0	button press	n/a	n/a	n/a	n/a	n/a	51	n/a	n/a	-100
492.32	0	button press	n/a	n/a	n/a	n/a	n/a	54	n/a	n/a	-100
497.90	4.00	AA	0.98	5	0	0	0	n/a	1	13064	64
498.88	0	button press	n/a	n/a	n/a	n/a	n/a	51	n/a	n/a	-100
499.73	0	button press	n/a	n/a	n/a	n/a	n/a	54	n/a	n/a	-100
500.00	0	button press	n/a	n/a	n/a	n/a	n/a	54	n/a	n/a	-100
500.30	0	button press	n/a	n/a	n/a	n/a	n/a	54	n/a	n/a	-100
500.57	0	button press	n/a	n/a	n/a	n/a	n/a	54	n/a	n/a	-100
505.03	4.00	AA	0.95	4	0	0	0	n/a	1	13065	65
505.98	0	button press	n/a	n/a	n/a	n/a	n/a	51	n/a	n/a	-100
507.04	0	button press	n/a	n/a	n/a	n/a	n/a	54	n/a	n/a	-100
512.27	4.00	CC	0.90	5	0	1	1	n/a	1	13066	66
513.17	0	button press	n/a	n/a	n/a	n/a	n/a	50	n/a	n/a	-100
518.50	4.00	CC	0.97	2	0	1	1	n/a	1	13067	67
519.47	0	button press	n/a	n/a	n/a	n/a	n/a	50	n/a	n/a	-100
520.24	0	button press	n/a	n/a	n/a	n/a	n/a	55	n/a	n/a	-100
524.55	4.00	AA	0.97	4	0	0	0	n/a	1	13068	68
525.52	0	button press	n/a	n/a	n/a	n/a	n/a	51	n/a	n/a	-100
526.57	0	button press	n/a	n/a	n/a	n/a	n/a	54	n/a	n/a	-100
526.97	0	button press	n/a	n/a	n/a	n/a	n/a	54	n/a	n/a	-100
527.37	0	button press	n/a	n/a	n/a	n/a	n/a	54	n/a	n/a	-100
531.95	4.00	AA	1.10	2	0	0	0	n/a	1	13069	69
533.05	0	button press	n/a	n/a	n/a	n/a	n/a	51	n/a	n/a	-100
533.85	0	button press	n/a	n/a	n/a	n/a	n/a	55	n/a	n/a	-100
534.20	0	button press	n/a	n/a	n/a	n/a	n/a	55	n/a	n/a	-100
534.58	0	button press	n/a	n/a	n/a	n/a	n/a	55	n/a	n/a	-100
540.77	4.00	CA	1.17	1	0	1	0	n/a	1	13070	70
541.93	0	button press	n/a	n/a	n/a	n/a	n/a	51	n/a	n/a	-100
542.80	0	button press	n/a	n/a	n/a	n/a	n/a	55	n/a	n/a	-100
543.17	0	button press	n/a	n/a	n/a	n/a	n/a	55	n/a	n/a	-100
543.55	0	button press	n/a	n/a	n/a	n/a	n/a	55	n/a	n/a	-100
543.92	0	button press	n/a	n/a	n/a	n/a	n/a	55	n/a	n/a	-100
544.40	0	button press	n/a	n/a	n/a	n/a	n/a	55	n/a	n/a	-100
547.13	4.00	AA	1.08	3	0	0	0	n/a	1	13071	71
548.22	0	button press	n/a	n/a	n/a	n/a	n/a	51	n/a	n/a	-100
549.12	0	button press	n/a	n/a	n/a	n/a	n/a	55	n/a	n/a	-100
549.52	0	button press	n/a	n/a	n/a	n/a	n/a	55	n/a	n/a	-100
549.87	0	button press	n/a	n/a	n/a	n/a	n/a	55	n/a	n/a	-100
553.28	4.00	CC	1.08	1	0	1	1	n/a	1	13072	72
554.37	0	button press	n/a	n/a	n/a	n/a	n/a	50	n/a	n/a	-100
555.20	0	button press	n/a	n/a	n/a	n/a	n/a	55	n/a	n/a	-100
559.32	4.00	AA	1.00	3	0	0	0	n/a	1	13073	73
560.32	0	button press	n/a	n/a	n/a	n/a	n/a	51	n/a	n/a	-100
561.65	0	button press	n/a	n/a	n/a	n/a	n/a	55	n/a	n/a	-100
565.42	4.00	AA	0.98	2	0	0	0	n/a	1	13074	74
566.40	0	button press	n/a	n/a	n/a	n/a	n/a	51	n/a	n/a	-100
567.38	0	button press	n/a	n/a	n/a	n/a	n/a	55	n/a	n/a	-100
567.85	0	button press	n/a	n/a	n/a	n/a	n/a	55	n/a	n/a	-100
568.25	0	button press	n/a	n/a	n/a	n/a	n/a	55	n/a	n/a	-100
573.82	4.00	CC	0.98	3	0	1	1	n/a	1	13075	75
574.80	0	button press	n/a	n/a	n/a	n/a	n/a	50	n/a	n/a	-100
576.20	0	button press	n/a	n/a	n/a	n/a	n/a	54	n/a	n/a	-100
580.50	4.00	AA	1.05	1	0	0	0	n/a	1	13076	76
581.55	0	button press	n/a	n/a	n/a	n/a	n/a	51	n/a	n/a	-100
582.53	0	button press	n/a	n/a	n/a	n/a	n/a	55	n/a	n/a	-100
582.92	0	button press	n/a	n/a	n/a	n/a	n/a	55	n/a	n/a	-100
583.35	0	button press	n/a	n/a	n/a	n/a	n/a	55	n/a	n/a	-100
583.78	0	button press	n/a	n/a	n/a	n/a	n/a	55	n/a	n/a	-100
588.10	4.00	AA	1.02	3	0	0	0	n/a	1	13077	77
589.12	0	button press	n/a	n/a	n/a	n/a	n/a	51	n/a	n/a	-100
590.72	0	button press	n/a	n/a	n/a	n/a	n/a	54	n/a	n/a	-100
595.28	4.00	CC	1.02	2	0	1	1	n/a	1	13078	78
596.30	0	button press	n/a	n/a	n/a	n/a	n/a	50	n/a	n/a	-100
