onset	duration	trial_type	response_time	confidence	task	stimulus	response	key_id	include	uid	trial_number
0.00	5.00	instructions	n/a	n/a	1	n/a	n/a	n/a	n/a	n/a	n/a
10.02	4.00	YN	1.14	2	1	1	0	n/a	0	10201	1
11.18	0	button press	n/a	n/a	n/a	n/a	n/a	50	n/a	n/a	-100
12.47	0	button press	n/a	n/a	n/a	n/a	n/a	54	n/a	n/a	-100
12.73	0	button press	n/a	n/a	n/a	n/a	n/a	54	n/a	n/a	-100
18.83	4.00	NY	1.46	2	1	0	1	n/a	1	10202	2
20.30	0	button press	n/a	n/a	n/a	n/a	n/a	51	n/a	n/a	-100
21.49	0	button press	n/a	n/a	n/a	n/a	n/a	55	n/a	n/a	-100
24.60	4.00	NN	0.85	5	1	0	0	n/a	1	10203	3
25.45	0	button press	n/a	n/a	n/a	n/a	n/a	50	n/a	n/a	-100
27.43	0	button press	n/a	n/a	n/a	n/a	n/a	55	n/a	n/a	-100
30.27	4.00	YY	0.93	4	1	1	1	n/a	1	10204	4
31.20	0	button press	n/a	n/a	n/a	n/a	n/a	51	n/a	n/a	-100
32.33	0	button press	n/a	n/a	n/a	n/a	n/a	54	n/a	n/a	-100
32.58	0	button press	n/a	n/a	n/a	n/a	n/a	54	n/a	n/a	-100
36.63	4.00	YN	0.90	4	1	1	0	n/a	1	10205	5
37.53	0	button press	n/a	n/a	n/a	n/a	n/a	50	n/a	n/a	-100
38.62	0	button press	n/a	n/a	n/a	n/a	n/a	55	n/a	n/a	-100
39.00	0	button press	n/a	n/a	n/a	n/a	n/a	55	n/a	n/a	-100
43.75	4.00	YN	1.02	5	1	1	0	n/a	1	10206	6
44.77	0	button press	n/a	n/a	n/a	n/a	n/a	50	n/a	n/a	-100
45.90	0	button press	n/a	n/a	n/a	n/a	n/a	54	n/a	n/a	-100
50.97	4.00	NN	0.87	3	1	0	0	n/a	1	10207	7
51.83	0	button press	n/a	n/a	n/a	n/a	n/a	50	n/a	n/a	-100
53.18	0	button press	n/a	n/a	n/a	n/a	n/a	55	n/a	n/a	-100
53.55	0	button press	n/a	n/a	n/a	n/a	n/a	55	n/a	n/a	-100
56.83	4.00	YN	1.18	2	1	1	0	n/a	1	10208	8
58.02	0	button press	n/a	n/a	n/a	n/a	n/a	50	n/a	n/a	-100
59.27	0	button press	n/a	n/a	n/a	n/a	n/a	54	n/a	n/a	-100
64.35	4.00	YY	0.85	4	1	1	1	n/a	1	10209	9
65.20	0	button press	n/a	n/a	n/a	n/a	n/a	51	n/a	n/a	-100
66.65	0	button press	n/a	n/a	n/a	n/a	n/a	54	n/a	n/a	-100
73.17	4.00	NN	1.07	3	1	0	0	n/a	1	10210	10
74.23	0	button press	n/a	n/a	n/a	n/a	n/a	50	n/a	n/a	-100
75.25	0	button press	n/a	n/a	n/a	n/a	n/a	55	n/a	n/a	-100
75.62	0	button press	n/a	n/a	n/a	n/a	n/a	55	n/a	n/a	-100
81.50	4.00	YY	0.92	5	1	1	1	n/a	1	10211	11
82.42	0	button press	n/a	n/a	n/a	n/a	n/a	51	n/a	n/a	-100
83.47	0	button press	n/a	n/a	n/a	n/a	n/a	55	n/a	n/a	-100
83.77	0	button press	n/a	n/a	n/a	n/a	n/a	55	n/a	n/a	-100
84.02	0	button press	n/a	n/a	n/a	n/a	n/a	55	n/a	n/a	-100
84.28	0	button press	n/a	n/a	n/a	n/a	n/a	55	n/a	n/a	-100
89.87	4.00	YN	0.93	3	1	1	0	n/a	1	10212	12
90.80	0	button press	n/a	n/a	n/a	n/a	n/a	50	n/a	n/a	-100
91.87	0	button press	n/a	n/a	n/a	n/a	n/a	54	n/a	n/a	-100
92.15	0	button press	n/a	n/a	n/a	n/a	n/a	54	n/a	n/a	-100
92.38	0	button press	n/a	n/a	n/a	n/a	n/a	54	n/a	n/a	-100
98.37	4.00	NN	0.95	4	1	0	0	n/a	1	10213	13
99.32	0	button press	n/a	n/a	n/a	n/a	n/a	50	n/a	n/a	-100
100.25	0	button press	n/a	n/a	n/a	n/a	n/a	55	n/a	n/a	-100
100.60	0	button press	n/a	n/a	n/a	n/a	n/a	55	n/a	n/a	-100
106.38	4.00	NN	0.98	4	1	0	0	n/a	1	10214	14
107.37	0	button press	n/a	n/a	n/a	n/a	n/a	50	n/a	n/a	-100
108.62	0	button press	n/a	n/a	n/a	n/a	n/a	54	n/a	n/a	-100
109.15	0	button press	n/a	n/a	n/a	n/a	n/a	54	n/a	n/a	-100
113.45	4.00	YY	0.87	6	1	1	1	n/a	1	10215	15
114.32	0	button press	n/a	n/a	n/a	n/a	n/a	51	n/a	n/a	-100
115.27	0	button press	n/a	n/a	n/a	n/a	n/a	55	n/a	n/a	-100
115.62	0	button press	n/a	n/a	n/a	n/a	n/a	55	n/a	n/a	-100
120.05	4.00	YY	1.08	5	1	1	1	n/a	1	10216	16
121.13	0	button press	n/a	n/a	n/a	n/a	n/a	51	n/a	n/a	-100
121.98	0	button press	n/a	n/a	n/a	n/a	n/a	55	n/a	n/a	-100
128.48	4.00	NN	0.87	4	1	0	0	n/a	1	10217	17
129.35	0	button press	n/a	n/a	n/a	n/a	n/a	50	n/a	n/a	-100
130.55	0	button press	n/a	n/a	n/a	n/a	n/a	54	n/a	n/a	-100
134.68	4.00	NN	0.87	3	1	0	0	n/a	1	10218	18
135.55	0	button press	n/a	n/a	n/a	n/a	n/a	50	n/a	n/a	-100
137.55	0	button press	n/a	n/a	n/a	n/a	n/a	54	n/a	n/a	-100
140.42	4.00	NN	1.00	4	1	0	0	n/a	1	10219	19
141.42	0	button press	n/a	n/a	n/a	n/a	n/a	50	n/a	n/a	-100
142.62	0	button press	n/a	n/a	n/a	n/a	n/a	55	n/a	n/a	-100
146.02	4.00	NN	1.02	4	1	0	0	n/a	1	10220	20
147.03	0	button press	n/a	n/a	n/a	n/a	n/a	50	n/a	n/a	-100
148.80	0	button press	n/a	n/a	n/a	n/a	n/a	55	n/a	n/a	-100
149.00	0	button press	n/a	n/a	n/a	n/a	n/a	55	n/a	n/a	-100
149.45	0	button press	n/a	n/a	n/a	n/a	n/a	54	n/a	n/a	-100
154.52	4.00	NN	0.90	4	1	0	0	n/a	1	10221	21
155.42	0	button press	n/a	n/a	n/a	n/a	n/a	50	n/a	n/a	-100
156.68	0	button press	n/a	n/a	n/a	n/a	n/a	55	n/a	n/a	-100
160.50	4.00	YY	1.23	3	1	1	1	n/a	1	10222	22
161.73	0	button press	n/a	n/a	n/a	n/a	n/a	51	n/a	n/a	-100
162.70	0	button press	n/a	n/a	n/a	n/a	n/a	55	n/a	n/a	-100
166.42	4.00	YY	0.80	2	1	1	1	n/a	1	10223	23
167.22	0	button press	n/a	n/a	n/a	n/a	n/a	51	n/a	n/a	-100
168.48	0	button press	n/a	n/a	n/a	n/a	n/a	55	n/a	n/a	-100
175.23	4.00	NN	1.23	2	1	0	0	n/a	1	10224	24
176.47	0	button press	n/a	n/a	n/a	n/a	n/a	50	n/a	n/a	-100
177.22	0	button press	n/a	n/a	n/a	n/a	n/a	54	n/a	n/a	-100
182.40	4.00	YY	0.95	3	1	1	1	n/a	1	10225	25
183.35	0	button press	n/a	n/a	n/a	n/a	n/a	51	n/a	n/a	-100
184.57	0	button press	n/a	n/a	n/a	n/a	n/a	54	n/a	n/a	-100
185.02	0	button press	n/a	n/a	n/a	n/a	n/a	54	n/a	n/a	-100
189.62	4.00	NN	1.22	3	1	0	0	n/a	1	10226	26
190.83	0	button press	n/a	n/a	n/a	n/a	n/a	50	n/a	n/a	-100
191.67	0	button press	n/a	n/a	n/a	n/a	n/a	54	n/a	n/a	-100
191.97	0	button press	n/a	n/a	n/a	n/a	n/a	54	n/a	n/a	-100
192.23	0	button press	n/a	n/a	n/a	n/a	n/a	54	n/a	n/a	-100
194.62	5.00	instructions	n/a	n/a	0	n/a	n/a	n/a	n/a	n/a	n/a
207.52	4.00	AA	1.11	4	0	0	0	n/a	0	10227	27
208.63	0	button press	n/a	n/a	n/a	n/a	n/a	50	n/a	n/a	-100
209.58	0	button press	n/a	n/a	n/a	n/a	n/a	55	n/a	n/a	-100
209.93	0	button press	n/a	n/a	n/a	n/a	n/a	55	n/a	n/a	-100
210.45	0	button press	n/a	n/a	n/a	n/a	n/a	55	n/a	n/a	-100
213.73	4.00	AA	1.05	4	0	0	0	n/a	1	10228	28
214.78	0	button press	n/a	n/a	n/a	n/a	n/a	50	n/a	n/a	-100
215.82	0	button press	n/a	n/a	n/a	n/a	n/a	54	n/a	n/a	-100
219.93	4.00	CC	1.18	1	0	1	1	n/a	1	10229	29
221.12	0	button press	n/a	n/a	n/a	n/a	n/a	51	n/a	n/a	-100
221.80	0	button press	n/a	n/a	n/a	n/a	n/a	54	n/a	n/a	-100
227.30	4.00	CC	0.95	4	0	1	1	n/a	1	10230	30
228.25	0	button press	n/a	n/a	n/a	n/a	n/a	51	n/a	n/a	-100
229.20	0	button press	n/a	n/a	n/a	n/a	n/a	55	n/a	n/a	-100
229.75	0	button press	n/a	n/a	n/a	n/a	n/a	55	n/a	n/a	-100
235.32	4.00	AA	0.88	5	0	0	0	n/a	1	10231	31
236.20	0	button press	n/a	n/a	n/a	n/a	n/a	50	n/a	n/a	-100
238.07	0	button press	n/a	n/a	n/a	n/a	n/a	55	n/a	n/a	-100
243.48	4.00	CA	0.97	4	0	1	0	n/a	1	10232	32
244.45	0	button press	n/a	n/a	n/a	n/a	n/a	50	n/a	n/a	-100
245.70	0	button press	n/a	n/a	n/a	n/a	n/a	55	n/a	n/a	-100
252.23	4.00	CA	0.88	4	0	1	0	n/a	1	10233	33
253.12	0	button press	n/a	n/a	n/a	n/a	n/a	50	n/a	n/a	-100
254.22	0	button press	n/a	n/a	n/a	n/a	n/a	55	n/a	n/a	-100
259.70	4.00	CC	0.88	3	0	1	1	n/a	1	10234	34
260.58	0	button press	n/a	n/a	n/a	n/a	n/a	51	n/a	n/a	-100
261.65	0	button press	n/a	n/a	n/a	n/a	n/a	54	n/a	n/a	-100
261.90	0	button press	n/a	n/a	n/a	n/a	n/a	54	n/a	n/a	-100
262.13	0	button press	n/a	n/a	n/a	n/a	n/a	54	n/a	n/a	-100
268.50	4.00	CA	1.07	3	0	1	0	n/a	1	10235	35
269.57	0	button press	n/a	n/a	n/a	n/a	n/a	50	n/a	n/a	-100
270.37	0	button press	n/a	n/a	n/a	n/a	n/a	54	n/a	n/a	-100
270.63	0	button press	n/a	n/a	n/a	n/a	n/a	54	n/a	n/a	-100
274.38	4.00	AA	0.93	4	0	0	0	n/a	1	10236	36
275.32	0	button press	n/a	n/a	n/a	n/a	n/a	50	n/a	n/a	-100
276.47	0	button press	n/a	n/a	n/a	n/a	n/a	54	n/a	n/a	-100
276.75	0	button press	n/a	n/a	n/a	n/a	n/a	54	n/a	n/a	-100
280.65	4.00	CA	0.98	3	0	1	0	n/a	1	10237	37
281.63	0	button press	n/a	n/a	n/a	n/a	n/a	50	n/a	n/a	-100
283.10	0	button press	n/a	n/a	n/a	n/a	n/a	55	n/a	n/a	-100
288.33	4.00	CA	1.05	5	0	1	0	n/a	1	10238	38
289.38	0	button press	n/a	n/a	n/a	n/a	n/a	50	n/a	n/a	-100
290.15	0	button press	n/a	n/a	n/a	n/a	n/a	55	n/a	n/a	-100
290.42	0	button press	n/a	n/a	n/a	n/a	n/a	55	n/a	n/a	-100
290.72	0	button press	n/a	n/a	n/a	n/a	n/a	55	n/a	n/a	-100
291.00	0	button press	n/a	n/a	n/a	n/a	n/a	55	n/a	n/a	-100
296.12	4.00	AA	0.98	4	0	0	0	n/a	1	10239	39
297.10	0	button press	n/a	n/a	n/a	n/a	n/a	50	n/a	n/a	-100
298.05	0	button press	n/a	n/a	n/a	n/a	n/a	55	n/a	n/a	-100
298.42	0	button press	n/a	n/a	n/a	n/a	n/a	55	n/a	n/a	-100
298.53	0	button press	n/a	n/a	n/a	n/a	n/a	55	n/a	n/a	-100
304.25	4.00	AC	0.87	2	0	0	1	n/a	1	10240	40
305.12	0	button press	n/a	n/a	n/a	n/a	n/a	51	n/a	n/a	-100
306.28	0	button press	n/a	n/a	n/a	n/a	n/a	55	n/a	n/a	-100
312.62	4.00	CC	0.92	3	0	1	1	n/a	1	10241	41
313.53	0	button press	n/a	n/a	n/a	n/a	n/a	51	n/a	n/a	-100
314.78	0	button press	n/a	n/a	n/a	n/a	n/a	54	n/a	n/a	-100
318.52	4.00	AA	1.42	1	0	0	0	n/a	1	10242	42
319.93	0	button press	n/a	n/a	n/a	n/a	n/a	50	n/a	n/a	-100
325.93	4.00	CA	0.85	3	0	1	0	n/a	1	10243	43
326.78	0	button press	n/a	n/a	n/a	n/a	n/a	50	n/a	n/a	-100
327.83	0	button press	n/a	n/a	n/a	n/a	n/a	55	n/a	n/a	-100
328.18	0	button press	n/a	n/a	n/a	n/a	n/a	55	n/a	n/a	-100
333.43	4.00	AA	0.87	3	0	0	0	n/a	1	10244	44
334.30	0	button press	n/a	n/a	n/a	n/a	n/a	50	n/a	n/a	-100
335.35	0	button press	n/a	n/a	n/a	n/a	n/a	54	n/a	n/a	-100
335.63	0	button press	n/a	n/a	n/a	n/a	n/a	54	n/a	n/a	-100
335.87	0	button press	n/a	n/a	n/a	n/a	n/a	54	n/a	n/a	-100
340.40	4.00	CA	0.98	2	0	1	0	n/a	1	10245	45
341.38	0	button press	n/a	n/a	n/a	n/a	n/a	50	n/a	n/a	-100
342.33	0	button press	n/a	n/a	n/a	n/a	n/a	54	n/a	n/a	-100
342.58	0	button press	n/a	n/a	n/a	n/a	n/a	54	n/a	n/a	-100
342.80	0	button press	n/a	n/a	n/a	n/a	n/a	54	n/a	n/a	-100
348.07	4.00	AA	1.12	2	0	0	0	n/a	1	10246	46
349.18	0	button press	n/a	n/a	n/a	n/a	n/a	50	n/a	n/a	-100
349.92	0	button press	n/a	n/a	n/a	n/a	n/a	54	n/a	n/a	-100
350.18	0	button press	n/a	n/a	n/a	n/a	n/a	54	n/a	n/a	-100
350.45	0	button press	n/a	n/a	n/a	n/a	n/a	54	n/a	n/a	-100
350.67	0	button press	n/a	n/a	n/a	n/a	n/a	54	n/a	n/a	-100
353.90	4.00	CC	1.02	3	0	1	1	n/a	1	10247	47
354.92	0	button press	n/a	n/a	n/a	n/a	n/a	51	n/a	n/a	-100
356.18	0	button press	n/a	n/a	n/a	n/a	n/a	55	n/a	n/a	-100
359.65	4.00	AA	0.87	3	0	0	0	n/a	1	10248	48
360.52	0	button press	n/a	n/a	n/a	n/a	n/a	50	n/a	n/a	-100
361.68	0	button press	n/a	n/a	n/a	n/a	n/a	54	n/a	n/a	-100
362.02	0	button press	n/a	n/a	n/a	n/a	n/a	54	n/a	n/a	-100
367.55	4.00	AA	1.07	4	0	0	0	n/a	1	10249	49
368.62	0	button press	n/a	n/a	n/a	n/a	n/a	50	n/a	n/a	-100
369.75	0	button press	n/a	n/a	n/a	n/a	n/a	54	n/a	n/a	-100
370.02	0	button press	n/a	n/a	n/a	n/a	n/a	54	n/a	n/a	-100
373.18	4.00	AA	1.10	2	0	0	0	n/a	1	10250	50
374.28	0	button press	n/a	n/a	n/a	n/a	n/a	50	n/a	n/a	-100
381.10	4.00	AA	0.87	3	0	0	0	n/a	1	10251	51
381.97	0	button press	n/a	n/a	n/a	n/a	n/a	50	n/a	n/a	-100
383.32	0	button press	n/a	n/a	n/a	n/a	n/a	54	n/a	n/a	-100
383.60	0	button press	n/a	n/a	n/a	n/a	n/a	54	n/a	n/a	-100
385.28	0	button press	n/a	n/a	n/a	n/a	n/a	55	n/a	n/a	-100
387.12	4.00	CA	1.05	1	0	1	0	n/a	1	10252	52
388.17	0	button press	n/a	n/a	n/a	n/a	n/a	50	n/a	n/a	-100
389.00	0	button press	n/a	n/a	n/a	n/a	n/a	54	n/a	n/a	-100
389.23	0	button press	n/a	n/a	n/a	n/a	n/a	54	n/a	n/a	-100
392.12	5.00	instructions	n/a	n/a	2	n/a	n/a	n/a	n/a	n/a	n/a
403.25	4.00	VV	0.97	5	2	0	0	n/a	0	10253	53
404.22	0	button press	n/a	n/a	n/a	n/a	n/a	51	n/a	n/a	-100
405.33	0	button press	n/a	n/a	n/a	n/a	n/a	54	n/a	n/a	-100
411.17	4.00	VT	1.08	3	2	0	1	n/a	1	10254	54
412.25	0	button press	n/a	n/a	n/a	n/a	n/a	50	n/a	n/a	-100
413.37	0	button press	n/a	n/a	n/a	n/a	n/a	54	n/a	n/a	-100
417.88	4.00	VV	0.88	3	2	0	0	n/a	1	10255	55
418.77	0	button press	n/a	n/a	n/a	n/a	n/a	51	n/a	n/a	-100
420.17	0	button press	n/a	n/a	n/a	n/a	n/a	55	n/a	n/a	-100
420.52	0	button press	n/a	n/a	n/a	n/a	n/a	55	n/a	n/a	-100
426.03	4.00	TT	0.92	6	2	1	1	n/a	1	10256	56
426.95	0	button press	n/a	n/a	n/a	n/a	n/a	50	n/a	n/a	-100
427.95	0	button press	n/a	n/a	n/a	n/a	n/a	55	n/a	n/a	-100
433.75	4.00	TV	0.97	4	2	1	0	n/a	1	10257	57
434.72	0	button press	n/a	n/a	n/a	n/a	n/a	51	n/a	n/a	-100
435.87	0	button press	n/a	n/a	n/a	n/a	n/a	54	n/a	n/a	-100
439.95	4.00	VV	1.03	4	2	0	0	n/a	1	10258	58
440.98	0	button press	n/a	n/a	n/a	n/a	n/a	51	n/a	n/a	-100
442.37	0	button press	n/a	n/a	n/a	n/a	n/a	55	n/a	n/a	-100
442.70	0	button press	n/a	n/a	n/a	n/a	n/a	55	n/a	n/a	-100
442.95	0	button press	n/a	n/a	n/a	n/a	n/a	55	n/a	n/a	-100
448.78	4.00	TT	1.05	4	2	1	1	n/a	1	10259	59
449.84	0	button press	n/a	n/a	n/a	n/a	n/a	50	n/a	n/a	-100
450.88	0	button press	n/a	n/a	n/a	n/a	n/a	54	n/a	n/a	-100
455.73	4.00	VV	0.88	4	2	0	0	n/a	1	10260	60
456.62	0	button press	n/a	n/a	n/a	n/a	n/a	51	n/a	n/a	-100
457.88	0	button press	n/a	n/a	n/a	n/a	n/a	55	n/a	n/a	-100
458.25	0	button press	n/a	n/a	n/a	n/a	n/a	55	n/a	n/a	-100
463.90	4.00	TV	0.87	4	2	1	0	n/a	1	10261	61
464.77	0	button press	n/a	n/a	n/a	n/a	n/a	51	n/a	n/a	-100
466.00	0	button press	n/a	n/a	n/a	n/a	n/a	54	n/a	n/a	-100
470.82	4.00	VV	1.07	3	2	0	0	n/a	1	10262	62
471.88	0	button press	n/a	n/a	n/a	n/a	n/a	51	n/a	n/a	-100
477.17	4.00	TT	0.90	3	2	1	1	n/a	1	10263	63
478.07	0	button press	n/a	n/a	n/a	n/a	n/a	50	n/a	n/a	-100
479.08	0	button press	n/a	n/a	n/a	n/a	n/a	54	n/a	n/a	-100
479.37	0	button press	n/a	n/a	n/a	n/a	n/a	54	n/a	n/a	-100
479.97	0	button press	n/a	n/a	n/a	n/a	n/a	54	n/a	n/a	-100
483.82	4.00	TV	1.10	4	2	1	0	n/a	1	10264	64
484.92	0	button press	n/a	n/a	n/a	n/a	n/a	51	n/a	n/a	-100
485.82	0	button press	n/a	n/a	n/a	n/a	n/a	55	n/a	n/a	-100
492.35	4.00	TT	0.98	6	2	1	1	n/a	1	10265	65
493.33	0	button press	n/a	n/a	n/a	n/a	n/a	50	n/a	n/a	-100
494.32	0	button press	n/a	n/a	n/a	n/a	n/a	55	n/a	n/a	-100
498.75	4.00	VV	0.90	4	2	0	0	n/a	1	10266	66
499.65	0	button press	n/a	n/a	n/a	n/a	n/a	51	n/a	n/a	-100
500.77	0	button press	n/a	n/a	n/a	n/a	n/a	54	n/a	n/a	-100
501.08	0	button press	n/a	n/a	n/a	n/a	n/a	54	n/a	n/a	-100
505.05	4.00	VT	1.15	3	2	0	1	n/a	1	10267	67
506.20	0	button press	n/a	n/a	n/a	n/a	n/a	50	n/a	n/a	-100
507.27	0	button press	n/a	n/a	n/a	n/a	n/a	55	n/a	n/a	-100
507.72	0	button press	n/a	n/a	n/a	n/a	n/a	55	n/a	n/a	-100
513.87	4.00	VT	0.87	6	2	0	1	n/a	1	10268	68
514.73	0	button press	n/a	n/a	n/a	n/a	n/a	50	n/a	n/a	-100
521.17	4.00	VV	0.95	3	2	0	0	n/a	1	10269	69
522.12	0	button press	n/a	n/a	n/a	n/a	n/a	51	n/a	n/a	-100
523.38	0	button press	n/a	n/a	n/a	n/a	n/a	54	n/a	n/a	-100
523.65	0	button press	n/a	n/a	n/a	n/a	n/a	54	n/a	n/a	-100
523.90	0	button press	n/a	n/a	n/a	n/a	n/a	54	n/a	n/a	-100
529.70	4.00	TT	0.85	6	2	1	1	n/a	1	10270	70
530.55	0	button press	n/a	n/a	n/a	n/a	n/a	50	n/a	n/a	-100
531.66	0	button press	n/a	n/a	n/a	n/a	n/a	55	n/a	n/a	-100
537.70	4.00	TT	1.00	5	2	1	1	n/a	1	10271	71
538.70	0	button press	n/a	n/a	n/a	n/a	n/a	50	n/a	n/a	-100
539.78	0	button press	n/a	n/a	n/a	n/a	n/a	55	n/a	n/a	-100
540.12	0	button press	n/a	n/a	n/a	n/a	n/a	55	n/a	n/a	-100
540.36	0	button press	n/a	n/a	n/a	n/a	n/a	55	n/a	n/a	-100
540.65	0	button press	n/a	n/a	n/a	n/a	n/a	55	n/a	n/a	-100
545.97	4.00	TT	1.22	4	2	1	1	n/a	1	10272	72
547.18	0	button press	n/a	n/a	n/a	n/a	n/a	50	n/a	n/a	-100
547.97	0	button press	n/a	n/a	n/a	n/a	n/a	55	n/a	n/a	-100
548.27	0	button press	n/a	n/a	n/a	n/a	n/a	55	n/a	n/a	-100
548.57	0	button press	n/a	n/a	n/a	n/a	n/a	55	n/a	n/a	-100
554.53	4.00	VT	0.88	4	2	0	1	n/a	1	10273	73
555.42	0	button press	n/a	n/a	n/a	n/a	n/a	50	n/a	n/a	-100
556.65	0	button press	n/a	n/a	n/a	n/a	n/a	54	n/a	n/a	-100
563.33	4.00	TT	0.78	6	2	1	1	n/a	1	10274	74
564.12	0	button press	n/a	n/a	n/a	n/a	n/a	50	n/a	n/a	-100
565.14	0	button press	n/a	n/a	n/a	n/a	n/a	55	n/a	n/a	-100
570.35	4.00	VT	0.90	5	2	0	1	n/a	1	10275	75
571.25	0	button press	n/a	n/a	n/a	n/a	n/a	50	n/a	n/a	-100
572.47	0	button press	n/a	n/a	n/a	n/a	n/a	55	n/a	n/a	-100
572.78	0	button press	n/a	n/a	n/a	n/a	n/a	55	n/a	n/a	-100
579.03	4.00	TT	0.83	5	2	1	1	n/a	1	10276	76
579.87	0	button press	n/a	n/a	n/a	n/a	n/a	50	n/a	n/a	-100
580.93	0	button press	n/a	n/a	n/a	n/a	n/a	55	n/a	n/a	-100
581.25	0	button press	n/a	n/a	n/a	n/a	n/a	55	n/a	n/a	-100
585.60	4.00	TT	0.87	5	2	1	1	n/a	1	10277	77
586.47	0	button press	n/a	n/a	n/a	n/a	n/a	50	n/a	n/a	-100
587.72	0	button press	n/a	n/a	n/a	n/a	n/a	54	n/a	n/a	-100
594.22	4.00	VT	1.43	3	2	0	1	n/a	1	10278	78
595.65	0	button press	n/a	n/a	n/a	n/a	n/a	50	n/a	n/a	-100
596.33	0	button press	n/a	n/a	n/a	n/a	n/a	54	n/a	n/a	-100
596.60	0	button press	n/a	n/a	n/a	n/a	n/a	54	n/a	n/a	-100
596.82	0	button press	n/a	n/a	n/a	n/a	n/a	54	n/a	n/a	-100
