onset	duration	trial_type	response_time	confidence	task	stimulus	response	key_id	include	uid	trial_number
0.00	5.00	instructions	n/a	n/a	0	n/a	n/a	n/a	n/a	n/a	n/a
10.02	4.00	AA	0.94	2	0	0	0	n/a	0	2601	1
10.98	0	button press	n/a	n/a	n/a	n/a	n/a	51	n/a	n/a	-100
17.55	4.00	CC	0.76	6	0	1	1	n/a	1	2602	2
18.32	0	button press	n/a	n/a	n/a	n/a	n/a	50	n/a	n/a	-100
19.37	0	button press	n/a	n/a	n/a	n/a	n/a	54	n/a	n/a	-100
19.60	0	button press	n/a	n/a	n/a	n/a	n/a	54	n/a	n/a	-100
19.82	0	button press	n/a	n/a	n/a	n/a	n/a	54	n/a	n/a	-100
20.03	0	button press	n/a	n/a	n/a	n/a	n/a	54	n/a	n/a	-100
20.22	0	button press	n/a	n/a	n/a	n/a	n/a	54	n/a	n/a	-100
24.28	4.00	CC	0.90	2	0	1	1	n/a	1	2603	3
25.18	0	button press	n/a	n/a	n/a	n/a	n/a	50	n/a	n/a	-100
26.45	0	button press	n/a	n/a	n/a	n/a	n/a	55	n/a	n/a	-100
26.73	0	button press	n/a	n/a	n/a	n/a	n/a	55	n/a	n/a	-100
31.88	4.00	CC	0.86	2	0	1	1	n/a	1	2604	4
32.75	0	button press	n/a	n/a	n/a	n/a	n/a	50	n/a	n/a	-100
33.87	0	button press	n/a	n/a	n/a	n/a	n/a	55	n/a	n/a	-100
34.15	0	button press	n/a	n/a	n/a	n/a	n/a	55	n/a	n/a	-100
34.38	0	button press	n/a	n/a	n/a	n/a	n/a	55	n/a	n/a	-100
34.82	0	button press	n/a	n/a	n/a	n/a	n/a	55	n/a	n/a	-100
39.72	4.00	CC	1.03	1	0	1	1	n/a	1	2605	5
40.75	0	button press	n/a	n/a	n/a	n/a	n/a	50	n/a	n/a	-100
42.30	0	button press	n/a	n/a	n/a	n/a	n/a	55	n/a	n/a	-100
46.28	4.00	AA	1.07	1	0	0	0	n/a	1	2606	6
47.35	0	button press	n/a	n/a	n/a	n/a	n/a	51	n/a	n/a	-100
48.55	0	button press	n/a	n/a	n/a	n/a	n/a	55	n/a	n/a	-100
48.80	0	button press	n/a	n/a	n/a	n/a	n/a	55	n/a	n/a	-100
52.60	4.00	AA	0.87	3	0	0	0	n/a	1	2607	7
53.47	0	button press	n/a	n/a	n/a	n/a	n/a	51	n/a	n/a	-100
54.50	0	button press	n/a	n/a	n/a	n/a	n/a	54	n/a	n/a	-100
54.92	0	button press	n/a	n/a	n/a	n/a	n/a	55	n/a	n/a	-100
55.20	0	button press	n/a	n/a	n/a	n/a	n/a	55	n/a	n/a	-100
55.43	0	button press	n/a	n/a	n/a	n/a	n/a	55	n/a	n/a	-100
58.82	4.00	CC	1.02	2	0	1	1	n/a	1	2608	8
59.83	0	button press	n/a	n/a	n/a	n/a	n/a	50	n/a	n/a	-100
60.80	0	button press	n/a	n/a	n/a	n/a	n/a	55	n/a	n/a	-100
61.05	0	button press	n/a	n/a	n/a	n/a	n/a	55	n/a	n/a	-100
61.27	0	button press	n/a	n/a	n/a	n/a	n/a	55	n/a	n/a	-100
64.65	4.00	AA	1.05	3	0	0	0	n/a	1	2609	9
65.70	0	button press	n/a	n/a	n/a	n/a	n/a	51	n/a	n/a	-100
66.98	0	button press	n/a	n/a	n/a	n/a	n/a	55	n/a	n/a	-100
68.03	0	button press	n/a	n/a	n/a	n/a	n/a	55	n/a	n/a	-100
68.79	0	button press	n/a	n/a	n/a	n/a	n/a	54	n/a	n/a	-100
70.98	4.00	AA	1.03	2	0	0	0	n/a	1	2610	10
72.02	0	button press	n/a	n/a	n/a	n/a	n/a	51	n/a	n/a	-100
73.12	0	button press	n/a	n/a	n/a	n/a	n/a	54	n/a	n/a	-100
78.03	4.00	CA	1.24	1	0	1	0	n/a	1	2611	11
79.27	0	button press	n/a	n/a	n/a	n/a	n/a	51	n/a	n/a	-100
80.43	0	button press	n/a	n/a	n/a	n/a	n/a	55	n/a	n/a	-100
80.68	0	button press	n/a	n/a	n/a	n/a	n/a	55	n/a	n/a	-100
80.90	0	button press	n/a	n/a	n/a	n/a	n/a	55	n/a	n/a	-100
81.12	0	button press	n/a	n/a	n/a	n/a	n/a	55	n/a	n/a	-100
84.42	4.00	AC	1.13	1	0	0	1	n/a	1	2612	12
85.55	0	button press	n/a	n/a	n/a	n/a	n/a	50	n/a	n/a	-100
86.28	0	button press	n/a	n/a	n/a	n/a	n/a	55	n/a	n/a	-100
86.52	0	button press	n/a	n/a	n/a	n/a	n/a	55	n/a	n/a	-100
86.77	0	button press	n/a	n/a	n/a	n/a	n/a	55	n/a	n/a	-100
91.00	4.00	CC	0.93	2	0	1	1	n/a	1	2613	13
91.93	0	button press	n/a	n/a	n/a	n/a	n/a	50	n/a	n/a	-100
93.40	0	button press	n/a	n/a	n/a	n/a	n/a	55	n/a	n/a	-100
93.70	0	button press	n/a	n/a	n/a	n/a	n/a	55	n/a	n/a	-100
97.38	4.00	AA	0.83	2	0	0	0	n/a	1	2614	14
98.22	0	button press	n/a	n/a	n/a	n/a	n/a	51	n/a	n/a	-100
99.27	0	button press	n/a	n/a	n/a	n/a	n/a	55	n/a	n/a	-100
101.58	0	button press	n/a	n/a	n/a	n/a	n/a	55	n/a	n/a	-100
104.70	4.00	AC	1.12	2	0	0	1	n/a	1	2615	15
105.82	0	button press	n/a	n/a	n/a	n/a	n/a	50	n/a	n/a	-100
106.95	0	button press	n/a	n/a	n/a	n/a	n/a	55	n/a	n/a	-100
107.27	0	button press	n/a	n/a	n/a	n/a	n/a	55	n/a	n/a	-100
107.55	0	button press	n/a	n/a	n/a	n/a	n/a	55	n/a	n/a	-100
111.87	4.00	CA	1.18	1	0	1	0	n/a	1	2616	16
113.05	0	button press	n/a	n/a	n/a	n/a	n/a	51	n/a	n/a	-100
114.22	0	button press	n/a	n/a	n/a	n/a	n/a	55	n/a	n/a	-100
114.47	0	button press	n/a	n/a	n/a	n/a	n/a	55	n/a	n/a	-100
120.03	4.00	AA	0.98	1	0	0	0	n/a	1	2617	17
121.02	0	button press	n/a	n/a	n/a	n/a	n/a	51	n/a	n/a	-100
121.82	0	button press	n/a	n/a	n/a	n/a	n/a	55	n/a	n/a	-100
128.22	4.00	AA	1.08	6	0	0	0	n/a	1	2618	18
129.30	0	button press	n/a	n/a	n/a	n/a	n/a	51	n/a	n/a	-100
130.32	0	button press	n/a	n/a	n/a	n/a	n/a	54	n/a	n/a	-100
136.46	4.00	CC	0.79	6	0	1	1	n/a	1	2619	19
137.25	0	button press	n/a	n/a	n/a	n/a	n/a	50	n/a	n/a	-100
138.18	0	button press	n/a	n/a	n/a	n/a	n/a	54	n/a	n/a	-100
144.22	4.00	AA	0.88	6	0	0	0	n/a	1	2620	20
145.10	0	button press	n/a	n/a	n/a	n/a	n/a	51	n/a	n/a	-100
146.08	0	button press	n/a	n/a	n/a	n/a	n/a	54	n/a	n/a	-100
153.02	4.00	AC	0.97	2	0	0	1	n/a	1	2621	21
153.98	0	button press	n/a	n/a	n/a	n/a	n/a	50	n/a	n/a	-100
154.78	0	button press	n/a	n/a	n/a	n/a	n/a	55	n/a	n/a	-100
155.70	0	button press	n/a	n/a	n/a	n/a	n/a	54	n/a	n/a	-100
161.22	4.00	AA	1.23	1	0	0	0	n/a	1	2622	22
162.45	0	button press	n/a	n/a	n/a	n/a	n/a	51	n/a	n/a	-100
168.90	4.00	CC	0.90	3	0	1	1	n/a	1	2623	23
169.80	0	button press	n/a	n/a	n/a	n/a	n/a	50	n/a	n/a	-100
171.25	0	button press	n/a	n/a	n/a	n/a	n/a	55	n/a	n/a	-100
177.78	4.00	CC	1.00	1	0	1	1	n/a	1	2624	24
178.78	0	button press	n/a	n/a	n/a	n/a	n/a	50	n/a	n/a	-100
179.95	0	button press	n/a	n/a	n/a	n/a	n/a	55	n/a	n/a	-100
180.45	0	button press	n/a	n/a	n/a	n/a	n/a	55	n/a	n/a	-100
186.65	4.00	CC	0.88	3	0	1	1	n/a	1	2625	25
187.53	0	button press	n/a	n/a	n/a	n/a	n/a	50	n/a	n/a	-100
194.78	4.00	CC	0.85	6	0	1	1	n/a	1	2626	26
195.63	0	button press	n/a	n/a	n/a	n/a	n/a	50	n/a	n/a	-100
196.65	0	button press	n/a	n/a	n/a	n/a	n/a	54	n/a	n/a	-100
196.92	0	button press	n/a	n/a	n/a	n/a	n/a	54	n/a	n/a	-100
197.17	0	button press	n/a	n/a	n/a	n/a	n/a	54	n/a	n/a	-100
197.38	0	button press	n/a	n/a	n/a	n/a	n/a	54	n/a	n/a	-100
197.73	0	button press	n/a	n/a	n/a	n/a	n/a	54	n/a	n/a	-100
199.78	5.00	instructions	n/a	n/a	2	n/a	n/a	n/a	n/a	n/a	n/a
212.87	4.00	VV	1.01	3	2	0	0	n/a	0	2627	27
213.88	0	button press	n/a	n/a	n/a	n/a	n/a	51	n/a	n/a	-100
215.45	0	button press	n/a	n/a	n/a	n/a	n/a	54	n/a	n/a	-100
215.78	0	button press	n/a	n/a	n/a	n/a	n/a	54	n/a	n/a	-100
220.67	4.00	VV	1.05	3	2	0	0	n/a	1	2628	28
221.72	0	button press	n/a	n/a	n/a	n/a	n/a	51	n/a	n/a	-100
226.53	4.00	TV	0.93	6	2	1	0	n/a	1	2629	29
227.47	0	button press	n/a	n/a	n/a	n/a	n/a	51	n/a	n/a	-100
228.40	0	button press	n/a	n/a	n/a	n/a	n/a	54	n/a	n/a	-100
228.65	0	button press	n/a	n/a	n/a	n/a	n/a	54	n/a	n/a	-100
228.87	0	button press	n/a	n/a	n/a	n/a	n/a	54	n/a	n/a	-100
229.07	0	button press	n/a	n/a	n/a	n/a	n/a	54	n/a	n/a	-100
229.50	0	button press	n/a	n/a	n/a	n/a	n/a	54	n/a	n/a	-100
232.87	4.00	VT	0.97	1	2	0	1	n/a	1	2630	30
233.83	0	button press	n/a	n/a	n/a	n/a	n/a	50	n/a	n/a	-100
235.05	0	button press	n/a	n/a	n/a	n/a	n/a	55	n/a	n/a	-100
235.33	0	button press	n/a	n/a	n/a	n/a	n/a	55	n/a	n/a	-100
235.60	0	button press	n/a	n/a	n/a	n/a	n/a	55	n/a	n/a	-100
236.36	0	button press	n/a	n/a	n/a	n/a	n/a	55	n/a	n/a	-100
239.02	4.00	VV	0.93	6	2	0	0	n/a	1	2631	31
239.95	0	button press	n/a	n/a	n/a	n/a	n/a	51	n/a	n/a	-100
240.82	0	button press	n/a	n/a	n/a	n/a	n/a	54	n/a	n/a	-100
241.12	0	button press	n/a	n/a	n/a	n/a	n/a	54	n/a	n/a	-100
241.37	0	button press	n/a	n/a	n/a	n/a	n/a	54	n/a	n/a	-100
241.60	0	button press	n/a	n/a	n/a	n/a	n/a	54	n/a	n/a	-100
241.90	0	button press	n/a	n/a	n/a	n/a	n/a	54	n/a	n/a	-100
246.48	4.00	VV	0.95	3	2	0	0	n/a	1	2632	32
247.43	0	button press	n/a	n/a	n/a	n/a	n/a	51	n/a	n/a	-100
250.00	0	button press	n/a	n/a	n/a	n/a	n/a	54	n/a	n/a	-100
252.65	4.00	VV	0.98	3	2	0	0	n/a	1	2633	33
253.63	0	button press	n/a	n/a	n/a	n/a	n/a	51	n/a	n/a	-100
255.15	0	button press	n/a	n/a	n/a	n/a	n/a	54	n/a	n/a	-100
260.08	4.00	VV	0.97	6	2	0	0	n/a	1	2634	34
261.05	0	button press	n/a	n/a	n/a	n/a	n/a	51	n/a	n/a	-100
261.82	0	button press	n/a	n/a	n/a	n/a	n/a	54	n/a	n/a	-100
268.48	4.00	VV	0.93	6	2	0	0	n/a	1	2635	35
269.42	0	button press	n/a	n/a	n/a	n/a	n/a	51	n/a	n/a	-100
270.35	0	button press	n/a	n/a	n/a	n/a	n/a	54	n/a	n/a	-100
276.83	4.00	TV	0.93	2	2	1	0	n/a	1	2636	36
277.77	0	button press	n/a	n/a	n/a	n/a	n/a	51	n/a	n/a	-100
279.95	0	button press	n/a	n/a	n/a	n/a	n/a	54	n/a	n/a	-100
283.17	4.00	TT	0.92	1	2	1	1	n/a	1	2637	37
284.08	0	button press	n/a	n/a	n/a	n/a	n/a	50	n/a	n/a	-100
285.55	0	button press	n/a	n/a	n/a	n/a	n/a	55	n/a	n/a	-100
285.97	0	button press	n/a	n/a	n/a	n/a	n/a	55	n/a	n/a	-100
286.20	0	button press	n/a	n/a	n/a	n/a	n/a	55	n/a	n/a	-100
289.52	4.00	VV	0.85	3	2	0	0	n/a	1	2638	38
290.36	0	button press	n/a	n/a	n/a	n/a	n/a	51	n/a	n/a	-100
291.82	0	button press	n/a	n/a	n/a	n/a	n/a	55	n/a	n/a	-100
295.18	4.00	VT	1.27	1	2	0	1	n/a	1	2639	39
296.45	0	button press	n/a	n/a	n/a	n/a	n/a	50	n/a	n/a	-100
297.52	0	button press	n/a	n/a	n/a	n/a	n/a	55	n/a	n/a	-100
303.12	4.00	TT	1.00	6	2	1	1	n/a	1	2640	40
304.12	0	button press	n/a	n/a	n/a	n/a	n/a	50	n/a	n/a	-100
304.90	0	button press	n/a	n/a	n/a	n/a	n/a	54	n/a	n/a	-100
305.17	0	button press	n/a	n/a	n/a	n/a	n/a	54	n/a	n/a	-100
311.62	4.00	TT	0.80	6	2	1	1	n/a	1	2641	41
312.42	0	button press	n/a	n/a	n/a	n/a	n/a	50	n/a	n/a	-100
313.62	0	button press	n/a	n/a	n/a	n/a	n/a	54	n/a	n/a	-100
319.12	4.00	TV	1.30	1	2	1	0	n/a	1	2642	42
320.41	0	button press	n/a	n/a	n/a	n/a	n/a	51	n/a	n/a	-100
325.80	4.00	TT	0.90	6	2	1	1	n/a	1	2643	43
326.70	0	button press	n/a	n/a	n/a	n/a	n/a	50	n/a	n/a	-100
332.58	4.00	TT	0.92	3	2	1	1	n/a	1	2644	44
333.50	0	button press	n/a	n/a	n/a	n/a	n/a	50	n/a	n/a	-100
335.27	0	button press	n/a	n/a	n/a	n/a	n/a	55	n/a	n/a	-100
340.27	4.00	TV	1.22	1	2	1	0	n/a	1	2645	45
341.48	0	button press	n/a	n/a	n/a	n/a	n/a	51	n/a	n/a	-100
342.68	0	button press	n/a	n/a	n/a	n/a	n/a	55	n/a	n/a	-100
342.93	0	button press	n/a	n/a	n/a	n/a	n/a	55	n/a	n/a	-100
345.98	4.00	VV	0.90	6	2	0	0	n/a	1	2646	46
346.88	0	button press	n/a	n/a	n/a	n/a	n/a	51	n/a	n/a	-100
347.73	0	button press	n/a	n/a	n/a	n/a	n/a	54	n/a	n/a	-100
354.57	4.00	VV	0.95	1	2	0	0	n/a	1	2647	47
355.52	0	button press	n/a	n/a	n/a	n/a	n/a	51	n/a	n/a	-100
356.38	0	button press	n/a	n/a	n/a	n/a	n/a	55	n/a	n/a	-100
356.92	0	button press	n/a	n/a	n/a	n/a	n/a	55	n/a	n/a	-100
357.25	0	button press	n/a	n/a	n/a	n/a	n/a	55	n/a	n/a	-100
357.65	0	button press	n/a	n/a	n/a	n/a	n/a	55	n/a	n/a	-100
362.36	4.00	TV	0.98	4	2	1	0	n/a	1	2648	48
363.35	0	button press	n/a	n/a	n/a	n/a	n/a	51	n/a	n/a	-100
364.37	0	button press	n/a	n/a	n/a	n/a	n/a	55	n/a	n/a	-100
364.83	0	button press	n/a	n/a	n/a	n/a	n/a	55	n/a	n/a	-100
370.92	4.00	TT	0.75	6	2	1	1	n/a	1	2649	49
371.67	0	button press	n/a	n/a	n/a	n/a	n/a	50	n/a	n/a	-100
372.45	0	button press	n/a	n/a	n/a	n/a	n/a	54	n/a	n/a	-100
372.70	0	button press	n/a	n/a	n/a	n/a	n/a	54	n/a	n/a	-100
372.90	0	button press	n/a	n/a	n/a	n/a	n/a	54	n/a	n/a	-100
379.48	4.00	TT	0.80	6	2	1	1	n/a	1	2650	50
380.28	0	button press	n/a	n/a	n/a	n/a	n/a	50	n/a	n/a	-100
380.98	0	button press	n/a	n/a	n/a	n/a	n/a	54	n/a	n/a	-100
381.23	0	button press	n/a	n/a	n/a	n/a	n/a	54	n/a	n/a	-100
381.47	0	button press	n/a	n/a	n/a	n/a	n/a	54	n/a	n/a	-100
387.83	4.00	VV	0.95	3	2	0	0	n/a	1	2651	51
388.78	0	button press	n/a	n/a	n/a	n/a	n/a	51	n/a	n/a	-100
389.82	0	button press	n/a	n/a	n/a	n/a	n/a	55	n/a	n/a	-100
390.12	0	button press	n/a	n/a	n/a	n/a	n/a	55	n/a	n/a	-100
396.17	4.00	TT	0.85	6	2	1	1	n/a	1	2652	52
397.02	0	button press	n/a	n/a	n/a	n/a	n/a	50	n/a	n/a	-100
397.63	0	button press	n/a	n/a	n/a	n/a	n/a	54	n/a	n/a	-100
397.92	0	button press	n/a	n/a	n/a	n/a	n/a	54	n/a	n/a	-100
398.13	0	button press	n/a	n/a	n/a	n/a	n/a	54	n/a	n/a	-100
398.33	0	button press	n/a	n/a	n/a	n/a	n/a	54	n/a	n/a	-100
398.53	0	button press	n/a	n/a	n/a	n/a	n/a	54	n/a	n/a	-100
401.17	5.00	instructions	n/a	n/a	1	n/a	n/a	n/a	n/a	n/a	n/a
414.78	4.00	YY	0.82	6	1	1	1	n/a	0	2653	53
415.60	0	button press	n/a	n/a	n/a	n/a	n/a	51	n/a	n/a	-100
416.32	0	button press	n/a	n/a	n/a	n/a	n/a	54	n/a	n/a	-100
416.60	0	button press	n/a	n/a	n/a	n/a	n/a	54	n/a	n/a	-100
423.05	4.00	NY	0.87	2	1	0	1	n/a	1	2654	54
423.92	0	button press	n/a	n/a	n/a	n/a	n/a	51	n/a	n/a	-100
430.38	4.00	YY	0.90	1	1	1	1	n/a	1	2655	55
431.28	0	button press	n/a	n/a	n/a	n/a	n/a	51	n/a	n/a	-100
432.47	0	button press	n/a	n/a	n/a	n/a	n/a	55	n/a	n/a	-100
432.73	0	button press	n/a	n/a	n/a	n/a	n/a	55	n/a	n/a	-100
436.03	4.00	YN	0.93	2	1	1	0	n/a	1	2656	56
436.97	0	button press	n/a	n/a	n/a	n/a	n/a	50	n/a	n/a	-100
438.02	0	button press	n/a	n/a	n/a	n/a	n/a	55	n/a	n/a	-100
438.28	0	button press	n/a	n/a	n/a	n/a	n/a	55	n/a	n/a	-100
438.53	0	button press	n/a	n/a	n/a	n/a	n/a	55	n/a	n/a	-100
439.33	0	button press	n/a	n/a	n/a	n/a	n/a	55	n/a	n/a	-100
443.45	4.00	NN	1.19	1	1	0	0	n/a	1	2657	57
444.63	0	button press	n/a	n/a	n/a	n/a	n/a	50	n/a	n/a	-100
445.38	0	button press	n/a	n/a	n/a	n/a	n/a	55	n/a	n/a	-100
445.62	0	button press	n/a	n/a	n/a	n/a	n/a	55	n/a	n/a	-100
445.85	0	button press	n/a	n/a	n/a	n/a	n/a	55	n/a	n/a	-100
446.08	0	button press	n/a	n/a	n/a	n/a	n/a	55	n/a	n/a	-100
450.81	4.00	NN	0.92	2	1	0	0	n/a	1	2658	58
451.73	0	button press	n/a	n/a	n/a	n/a	n/a	50	n/a	n/a	-100
452.50	0	button press	n/a	n/a	n/a	n/a	n/a	55	n/a	n/a	-100
454.13	0	button press	n/a	n/a	n/a	n/a	n/a	55	n/a	n/a	-100
458.75	4.00	YY	1.00	6	1	1	1	n/a	1	2659	59
459.75	0	button press	n/a	n/a	n/a	n/a	n/a	51	n/a	n/a	-100
466.02	4.00	YY	0.85	6	1	1	1	n/a	1	2660	60
466.87	0	button press	n/a	n/a	n/a	n/a	n/a	51	n/a	n/a	-100
467.70	0	button press	n/a	n/a	n/a	n/a	n/a	54	n/a	n/a	-100
474.37	4.00	YY	0.92	3	1	1	1	n/a	1	2661	61
475.28	0	button press	n/a	n/a	n/a	n/a	n/a	51	n/a	n/a	-100
476.23	0	button press	n/a	n/a	n/a	n/a	n/a	55	n/a	n/a	-100
476.80	0	button press	n/a	n/a	n/a	n/a	n/a	54	n/a	n/a	-100
480.53	4.00	YN	0.80	6	1	1	0	n/a	1	2662	62
481.33	0	button press	n/a	n/a	n/a	n/a	n/a	50	n/a	n/a	-100
482.08	0	button press	n/a	n/a	n/a	n/a	n/a	54	n/a	n/a	-100
482.31	0	button press	n/a	n/a	n/a	n/a	n/a	54	n/a	n/a	-100
487.53	4.00	YY	0.77	6	1	1	1	n/a	1	2663	63
488.30	0	button press	n/a	n/a	n/a	n/a	n/a	51	n/a	n/a	-100
489.66	0	button press	n/a	n/a	n/a	n/a	n/a	54	n/a	n/a	-100
489.95	0	button press	n/a	n/a	n/a	n/a	n/a	54	n/a	n/a	-100
493.13	4.00	NN	0.77	6	1	0	0	n/a	1	2664	64
493.90	0	button press	n/a	n/a	n/a	n/a	n/a	50	n/a	n/a	-100
494.65	0	button press	n/a	n/a	n/a	n/a	n/a	54	n/a	n/a	-100
499.05	4.00	NN	0.95	6	1	0	0	n/a	1	2665	65
500.00	0	button press	n/a	n/a	n/a	n/a	n/a	50	n/a	n/a	-100
503.08	0	button press	n/a	n/a	n/a	n/a	n/a	55	n/a	n/a	-100
507.50	4.00	YN	0.92	1	1	1	0	n/a	1	2666	66
508.42	0	button press	n/a	n/a	n/a	n/a	n/a	50	n/a	n/a	-100
508.90	0	button press	n/a	n/a	n/a	n/a	n/a	55	n/a	n/a	-100
509.32	0	button press	n/a	n/a	n/a	n/a	n/a	55	n/a	n/a	-100
509.67	0	button press	n/a	n/a	n/a	n/a	n/a	55	n/a	n/a	-100
509.93	0	button press	n/a	n/a	n/a	n/a	n/a	55	n/a	n/a	-100
510.30	0	button press	n/a	n/a	n/a	n/a	n/a	55	n/a	n/a	-100
516.27	4.00	NN	1.08	1	1	0	0	n/a	1	2667	67
517.35	0	button press	n/a	n/a	n/a	n/a	n/a	50	n/a	n/a	-100
518.23	0	button press	n/a	n/a	n/a	n/a	n/a	55	n/a	n/a	-100
518.48	0	button press	n/a	n/a	n/a	n/a	n/a	55	n/a	n/a	-100
518.77	0	button press	n/a	n/a	n/a	n/a	n/a	55	n/a	n/a	-100
519.02	0	button press	n/a	n/a	n/a	n/a	n/a	55	n/a	n/a	-100
524.65	4.00	NN	0.86	4	1	0	0	n/a	1	2668	68
525.51	0	button press	n/a	n/a	n/a	n/a	n/a	50	n/a	n/a	-100
526.50	0	button press	n/a	n/a	n/a	n/a	n/a	54	n/a	n/a	-100
527.03	0	button press	n/a	n/a	n/a	n/a	n/a	55	n/a	n/a	-100
527.68	0	button press	n/a	n/a	n/a	n/a	n/a	55	n/a	n/a	-100
531.45	4.00	NN	0.80	6	1	0	0	n/a	1	2669	69
532.25	0	button press	n/a	n/a	n/a	n/a	n/a	50	n/a	n/a	-100
533.20	0	button press	n/a	n/a	n/a	n/a	n/a	54	n/a	n/a	-100
539.93	4.00	YN	0.93	6	1	1	0	n/a	1	2670	70
540.87	0	button press	n/a	n/a	n/a	n/a	n/a	50	n/a	n/a	-100
541.77	0	button press	n/a	n/a	n/a	n/a	n/a	54	n/a	n/a	-100
547.25	4.00	NY	1.21	2	1	0	1	n/a	1	2671	71
548.46	0	button press	n/a	n/a	n/a	n/a	n/a	51	n/a	n/a	-100
550.30	0	button press	n/a	n/a	n/a	n/a	n/a	54	n/a	n/a	-100
554.65	4.00	YN	0.88	2	1	1	0	n/a	1	2672	72
555.53	0	button press	n/a	n/a	n/a	n/a	n/a	50	n/a	n/a	-100
557.10	0	button press	n/a	n/a	n/a	n/a	n/a	54	n/a	n/a	-100
562.28	4.00	YY	0.88	6	1	1	1	n/a	1	2673	73
563.17	0	button press	n/a	n/a	n/a	n/a	n/a	51	n/a	n/a	-100
563.93	0	button press	n/a	n/a	n/a	n/a	n/a	54	n/a	n/a	-100
564.42	0	button press	n/a	n/a	n/a	n/a	n/a	54	n/a	n/a	-100
569.65	4.00	YN	1.10	1	1	1	0	n/a	1	2674	74
570.75	0	button press	n/a	n/a	n/a	n/a	n/a	50	n/a	n/a	-100
571.63	0	button press	n/a	n/a	n/a	n/a	n/a	55	n/a	n/a	-100
571.92	0	button press	n/a	n/a	n/a	n/a	n/a	55	n/a	n/a	-100
572.17	0	button press	n/a	n/a	n/a	n/a	n/a	55	n/a	n/a	-100
576.85	4.00	NN	0.82	1	1	0	0	n/a	1	2675	75
577.67	0	button press	n/a	n/a	n/a	n/a	n/a	50	n/a	n/a	-100
578.57	0	button press	n/a	n/a	n/a	n/a	n/a	55	n/a	n/a	-100
578.85	0	button press	n/a	n/a	n/a	n/a	n/a	55	n/a	n/a	-100
579.15	0	button press	n/a	n/a	n/a	n/a	n/a	55	n/a	n/a	-100
579.38	0	button press	n/a	n/a	n/a	n/a	n/a	55	n/a	n/a	-100
579.63	0	button press	n/a	n/a	n/a	n/a	n/a	55	n/a	n/a	-100
582.93	4.00	NN	0.80	6	1	0	0	n/a	1	2676	76
583.73	0	button press	n/a	n/a	n/a	n/a	n/a	50	n/a	n/a	-100
584.60	0	button press	n/a	n/a	n/a	n/a	n/a	54	n/a	n/a	-100
585.33	0	button press	n/a	n/a	n/a	n/a	n/a	54	n/a	n/a	-100
585.60	0	button press	n/a	n/a	n/a	n/a	n/a	54	n/a	n/a	-100
585.87	0	button press	n/a	n/a	n/a	n/a	n/a	54	n/a	n/a	-100
588.91	4.00	NN	0.78	6	1	0	0	n/a	1	2677	77
589.70	0	button press	n/a	n/a	n/a	n/a	n/a	50	n/a	n/a	-100
590.22	0	button press	n/a	n/a	n/a	n/a	n/a	54	n/a	n/a	-100
590.77	0	button press	n/a	n/a	n/a	n/a	n/a	54	n/a	n/a	-100
594.58	4.00	NN	0.83	6	1	0	0	n/a	1	2678	78
595.42	0	button press	n/a	n/a	n/a	n/a	n/a	50	n/a	n/a	-100
596.37	0	button press	n/a	n/a	n/a	n/a	n/a	54	n/a	n/a	-100
