onset	duration	trial_type	response_time	confidence	task	stimulus	response	key_id	include	uid	trial_number
0.00	5.00	instructions	n/a	n/a	1	n/a	n/a	n/a	n/a	n/a	n/a
10.00	4.00	YY	0.87	6	1	1	1	n/a	0	14001	1
10.94	0	button press	n/a	n/a	n/a	n/a	n/a	50	n/a	n/a	-100
12.40	0	button press	n/a	n/a	n/a	n/a	n/a	55	n/a	n/a	-100
16.04	4.00	YN	1.23	3	1	1	0	n/a	1	14002	2
17.27	0	button press	n/a	n/a	n/a	n/a	n/a	51	n/a	n/a	-100
18.50	0	button press	n/a	n/a	n/a	n/a	n/a	54	n/a	n/a	-100
23.33	4.00	YN	1.19	2	1	1	0	n/a	1	14003	3
24.52	0	button press	n/a	n/a	n/a	n/a	n/a	51	n/a	n/a	-100
30.38	4.00	YY	1.38	4	1	1	1	n/a	1	14004	4
31.77	0	button press	n/a	n/a	n/a	n/a	n/a	50	n/a	n/a	-100
32.55	0	button press	n/a	n/a	n/a	n/a	n/a	54	n/a	n/a	-100
32.93	0	button press	n/a	n/a	n/a	n/a	n/a	54	n/a	n/a	-100
33.30	0	button press	n/a	n/a	n/a	n/a	n/a	55	n/a	n/a	-100
33.55	0	button press	n/a	n/a	n/a	n/a	n/a	55	n/a	n/a	-100
34.30	0	button press	n/a	n/a	n/a	n/a	n/a	55	n/a	n/a	-100
39.60	4.00	NN	0.98	4	1	0	0	n/a	1	14005	5
40.58	0	button press	n/a	n/a	n/a	n/a	n/a	51	n/a	n/a	-100
42.20	0	button press	n/a	n/a	n/a	n/a	n/a	55	n/a	n/a	-100
42.82	0	button press	n/a	n/a	n/a	n/a	n/a	54	n/a	n/a	-100
43.78	0	button press	n/a	n/a	n/a	n/a	n/a	54	n/a	n/a	-100
45.23	4.00	NN	0.93	5	1	0	0	n/a	1	14006	6
46.17	0	button press	n/a	n/a	n/a	n/a	n/a	51	n/a	n/a	-100
48.18	0	button press	n/a	n/a	n/a	n/a	n/a	55	n/a	n/a	-100
48.83	0	button press	n/a	n/a	n/a	n/a	n/a	54	n/a	n/a	-100
52.37	4.00	NN	0.90	4	1	0	0	n/a	1	14007	7
53.27	0	button press	n/a	n/a	n/a	n/a	n/a	51	n/a	n/a	-100
59.48	4.00	YY	0.85	4	1	1	1	n/a	1	14008	8
60.33	0	button press	n/a	n/a	n/a	n/a	n/a	50	n/a	n/a	-100
61.40	0	button press	n/a	n/a	n/a	n/a	n/a	55	n/a	n/a	-100
62.33	0	button press	n/a	n/a	n/a	n/a	n/a	55	n/a	n/a	-100
66.62	4.00	NN	1.07	4	1	0	0	n/a	1	14009	9
67.68	0	button press	n/a	n/a	n/a	n/a	n/a	51	n/a	n/a	-100
68.95	0	button press	n/a	n/a	n/a	n/a	n/a	55	n/a	n/a	-100
69.37	0	button press	n/a	n/a	n/a	n/a	n/a	55	n/a	n/a	-100
75.23	4.00	YY	1.18	6	1	1	1	n/a	1	14010	10
76.42	0	button press	n/a	n/a	n/a	n/a	n/a	50	n/a	n/a	-100
76.97	0	button press	n/a	n/a	n/a	n/a	n/a	55	n/a	n/a	-100
77.25	0	button press	n/a	n/a	n/a	n/a	n/a	55	n/a	n/a	-100
77.48	0	button press	n/a	n/a	n/a	n/a	n/a	55	n/a	n/a	-100
77.68	0	button press	n/a	n/a	n/a	n/a	n/a	55	n/a	n/a	-100
77.90	0	button press	n/a	n/a	n/a	n/a	n/a	55	n/a	n/a	-100
81.37	4.00	NN	1.13	4	1	0	0	n/a	1	14011	11
82.50	0	button press	n/a	n/a	n/a	n/a	n/a	51	n/a	n/a	-100
83.62	0	button press	n/a	n/a	n/a	n/a	n/a	55	n/a	n/a	-100
90.48	4.00	YN	1.48	2	1	1	0	n/a	1	14012	12
91.97	0	button press	n/a	n/a	n/a	n/a	n/a	51	n/a	n/a	-100
93.10	0	button press	n/a	n/a	n/a	n/a	n/a	55	n/a	n/a	-100
93.63	0	button press	n/a	n/a	n/a	n/a	n/a	54	n/a	n/a	-100
93.88	0	button press	n/a	n/a	n/a	n/a	n/a	54	n/a	n/a	-100
94.32	0	button press	n/a	n/a	n/a	n/a	n/a	54	n/a	n/a	-100
97.80	4.00	YY	0.97	5	1	1	1	n/a	1	14013	13
98.77	0	button press	n/a	n/a	n/a	n/a	n/a	50	n/a	n/a	-100
99.58	0	button press	n/a	n/a	n/a	n/a	n/a	55	n/a	n/a	-100
99.80	0	button press	n/a	n/a	n/a	n/a	n/a	55	n/a	n/a	-100
103.40	4.00	NY	1.15	4	1	0	1	n/a	1	14014	14
104.55	0	button press	n/a	n/a	n/a	n/a	n/a	50	n/a	n/a	-100
105.38	0	button press	n/a	n/a	n/a	n/a	n/a	55	n/a	n/a	-100
110.08	4.00	NY	0.97	5	1	0	1	n/a	1	14015	15
111.05	0	button press	n/a	n/a	n/a	n/a	n/a	50	n/a	n/a	-100
111.67	0	button press	n/a	n/a	n/a	n/a	n/a	55	n/a	n/a	-100
111.92	0	button press	n/a	n/a	n/a	n/a	n/a	55	n/a	n/a	-100
112.18	0	button press	n/a	n/a	n/a	n/a	n/a	55	n/a	n/a	-100
115.98	4.00	YY	1.12	5	1	1	1	n/a	1	14016	16
117.10	0	button press	n/a	n/a	n/a	n/a	n/a	50	n/a	n/a	-100
117.92	0	button press	n/a	n/a	n/a	n/a	n/a	55	n/a	n/a	-100
118.48	0	button press	n/a	n/a	n/a	n/a	n/a	54	n/a	n/a	-100
124.67	4.00	YY	0.90	4	1	1	1	n/a	1	14017	17
125.57	0	button press	n/a	n/a	n/a	n/a	n/a	50	n/a	n/a	-100
126.53	0	button press	n/a	n/a	n/a	n/a	n/a	55	n/a	n/a	-100
131.67	4.00	YY	0.97	5	1	1	1	n/a	1	14018	18
132.63	0	button press	n/a	n/a	n/a	n/a	n/a	50	n/a	n/a	-100
133.82	0	button press	n/a	n/a	n/a	n/a	n/a	54	n/a	n/a	-100
139.43	4.00	NN	0.82	4	1	0	0	n/a	1	14019	19
140.25	0	button press	n/a	n/a	n/a	n/a	n/a	51	n/a	n/a	-100
140.92	0	button press	n/a	n/a	n/a	n/a	n/a	55	n/a	n/a	-100
141.22	0	button press	n/a	n/a	n/a	n/a	n/a	55	n/a	n/a	-100
141.43	0	button press	n/a	n/a	n/a	n/a	n/a	55	n/a	n/a	-100
142.05	0	button press	n/a	n/a	n/a	n/a	n/a	54	n/a	n/a	-100
146.95	4.00	NN	1.37	3	1	0	0	n/a	1	14020	20
148.32	0	button press	n/a	n/a	n/a	n/a	n/a	51	n/a	n/a	-100
149.17	0	button press	n/a	n/a	n/a	n/a	n/a	55	n/a	n/a	-100
154.32	4.00	NY	1.25	1	1	0	1	n/a	1	14021	21
155.57	0	button press	n/a	n/a	n/a	n/a	n/a	50	n/a	n/a	-100
156.98	0	button press	n/a	n/a	n/a	n/a	n/a	55	n/a	n/a	-100
157.45	0	button press	n/a	n/a	n/a	n/a	n/a	54	n/a	n/a	-100
157.70	0	button press	n/a	n/a	n/a	n/a	n/a	54	n/a	n/a	-100
162.78	4.00	YY	1.20	5	1	1	1	n/a	1	14022	22
163.98	0	button press	n/a	n/a	n/a	n/a	n/a	50	n/a	n/a	-100
166.12	0	button press	n/a	n/a	n/a	n/a	n/a	55	n/a	n/a	-100
169.45	4.00	NN	0.78	2	1	0	0	n/a	1	14023	23
170.23	0	button press	n/a	n/a	n/a	n/a	n/a	51	n/a	n/a	-100
171.88	0	button press	n/a	n/a	n/a	n/a	n/a	54	n/a	n/a	-100
172.18	0	button press	n/a	n/a	n/a	n/a	n/a	54	n/a	n/a	-100
172.82	0	button press	n/a	n/a	n/a	n/a	n/a	54	n/a	n/a	-100
176.33	4.00	NN	0.92	2	1	0	0	n/a	1	14024	24
177.25	0	button press	n/a	n/a	n/a	n/a	n/a	51	n/a	n/a	-100
178.00	0	button press	n/a	n/a	n/a	n/a	n/a	55	n/a	n/a	-100
178.62	0	button press	n/a	n/a	n/a	n/a	n/a	54	n/a	n/a	-100
178.83	0	button press	n/a	n/a	n/a	n/a	n/a	54	n/a	n/a	-100
182.22	4.00	YY	1.27	5	1	1	1	n/a	1	14025	25
183.48	0	button press	n/a	n/a	n/a	n/a	n/a	50	n/a	n/a	-100
184.15	0	button press	n/a	n/a	n/a	n/a	n/a	55	n/a	n/a	-100
185.33	0	button press	n/a	n/a	n/a	n/a	n/a	54	n/a	n/a	-100
189.53	4.00	NY	1.08	3	1	0	1	n/a	1	14026	26
190.62	0	button press	n/a	n/a	n/a	n/a	n/a	50	n/a	n/a	-100
191.50	0	button press	n/a	n/a	n/a	n/a	n/a	55	n/a	n/a	-100
192.07	0	button press	n/a	n/a	n/a	n/a	n/a	55	n/a	n/a	-100
194.53	5.00	instructions	n/a	n/a	2	n/a	n/a	n/a	n/a	n/a	n/a
208.33	4.00	VV	0.82	4	2	0	0	n/a	0	14027	27
209.15	0	button press	n/a	n/a	n/a	n/a	n/a	51	n/a	n/a	-100
210.50	0	button press	n/a	n/a	n/a	n/a	n/a	55	n/a	n/a	-100
210.70	0	button press	n/a	n/a	n/a	n/a	n/a	55	n/a	n/a	-100
210.87	0	button press	n/a	n/a	n/a	n/a	n/a	55	n/a	n/a	-100
215.88	4.00	TT	0.73	4	2	1	1	n/a	1	14028	28
216.62	0	button press	n/a	n/a	n/a	n/a	n/a	50	n/a	n/a	-100
217.87	0	button press	n/a	n/a	n/a	n/a	n/a	55	n/a	n/a	-100
225.15	4.00	TV	1.48	3	2	1	0	n/a	1	14029	29
226.63	0	button press	n/a	n/a	n/a	n/a	n/a	51	n/a	n/a	-100
227.50	0	button press	n/a	n/a	n/a	n/a	n/a	55	n/a	n/a	-100
227.88	0	button press	n/a	n/a	n/a	n/a	n/a	55	n/a	n/a	-100
228.18	0	button press	n/a	n/a	n/a	n/a	n/a	55	n/a	n/a	-100
228.53	0	button press	n/a	n/a	n/a	n/a	n/a	54	n/a	n/a	-100
231.02	4.00	VV	0.98	6	2	0	0	n/a	1	14030	30
232.00	0	button press	n/a	n/a	n/a	n/a	n/a	51	n/a	n/a	-100
232.50	0	button press	n/a	n/a	n/a	n/a	n/a	55	n/a	n/a	-100
232.80	0	button press	n/a	n/a	n/a	n/a	n/a	55	n/a	n/a	-100
233.00	0	button press	n/a	n/a	n/a	n/a	n/a	55	n/a	n/a	-100
233.20	0	button press	n/a	n/a	n/a	n/a	n/a	55	n/a	n/a	-100
233.43	0	button press	n/a	n/a	n/a	n/a	n/a	55	n/a	n/a	-100
233.83	0	button press	n/a	n/a	n/a	n/a	n/a	55	n/a	n/a	-100
237.45	4.00	TT	0.85	6	2	1	1	n/a	1	14031	31
238.30	0	button press	n/a	n/a	n/a	n/a	n/a	50	n/a	n/a	-100
238.77	0	button press	n/a	n/a	n/a	n/a	n/a	55	n/a	n/a	-100
239.07	0	button press	n/a	n/a	n/a	n/a	n/a	55	n/a	n/a	-100
239.27	0	button press	n/a	n/a	n/a	n/a	n/a	55	n/a	n/a	-100
239.47	0	button press	n/a	n/a	n/a	n/a	n/a	55	n/a	n/a	-100
239.63	0	button press	n/a	n/a	n/a	n/a	n/a	55	n/a	n/a	-100
239.83	0	button press	n/a	n/a	n/a	n/a	n/a	55	n/a	n/a	-100
243.33	4.00	VV	1.03	4	2	0	0	n/a	1	14032	32
244.37	0	button press	n/a	n/a	n/a	n/a	n/a	51	n/a	n/a	-100
244.77	0	button press	n/a	n/a	n/a	n/a	n/a	55	n/a	n/a	-100
245.03	0	button press	n/a	n/a	n/a	n/a	n/a	55	n/a	n/a	-100
245.22	0	button press	n/a	n/a	n/a	n/a	n/a	55	n/a	n/a	-100
246.02	0	button press	n/a	n/a	n/a	n/a	n/a	54	n/a	n/a	-100
250.10	4.00	VV	1.02	5	2	0	0	n/a	1	14033	33
251.12	0	button press	n/a	n/a	n/a	n/a	n/a	51	n/a	n/a	-100
251.60	0	button press	n/a	n/a	n/a	n/a	n/a	55	n/a	n/a	-100
251.92	0	button press	n/a	n/a	n/a	n/a	n/a	55	n/a	n/a	-100
252.15	0	button press	n/a	n/a	n/a	n/a	n/a	55	n/a	n/a	-100
252.53	0	button press	n/a	n/a	n/a	n/a	n/a	55	n/a	n/a	-100
255.70	4.00	VV	0.80	2	2	0	0	n/a	1	14034	34
256.50	0	button press	n/a	n/a	n/a	n/a	n/a	51	n/a	n/a	-100
258.37	0	button press	n/a	n/a	n/a	n/a	n/a	54	n/a	n/a	-100
262.30	4.00	TV	0.88	4	2	1	0	n/a	1	14035	35
263.18	0	button press	n/a	n/a	n/a	n/a	n/a	51	n/a	n/a	-100
268.80	4.00	TT	1.17	5	2	1	1	n/a	1	14036	36
269.97	0	button press	n/a	n/a	n/a	n/a	n/a	50	n/a	n/a	-100
271.18	0	button press	n/a	n/a	n/a	n/a	n/a	54	n/a	n/a	-100
277.28	4.00	TT	1.08	2	2	1	1	n/a	1	14037	37
278.37	0	button press	n/a	n/a	n/a	n/a	n/a	50	n/a	n/a	-100
279.34	0	button press	n/a	n/a	n/a	n/a	n/a	54	n/a	n/a	-100
279.75	0	button press	n/a	n/a	n/a	n/a	n/a	55	n/a	n/a	-100
286.38	4.00	VT	1.07	4	2	0	1	n/a	1	14038	38
287.45	0	button press	n/a	n/a	n/a	n/a	n/a	50	n/a	n/a	-100
288.30	0	button press	n/a	n/a	n/a	n/a	n/a	55	n/a	n/a	-100
288.88	0	button press	n/a	n/a	n/a	n/a	n/a	54	n/a	n/a	-100
293.20	4.00	VV	1.48	1	2	0	0	n/a	1	14039	39
294.30	0	button press	n/a	n/a	n/a	n/a	n/a	50	n/a	n/a	-100
294.69	0	button press	n/a	n/a	n/a	n/a	n/a	51	n/a	n/a	-100
296.09	0	button press	n/a	n/a	n/a	n/a	n/a	54	n/a	n/a	-100
296.37	0	button press	n/a	n/a	n/a	n/a	n/a	54	n/a	n/a	-100
300.15	4.00	VV	1.15	3	2	0	0	n/a	1	14040	40
301.30	0	button press	n/a	n/a	n/a	n/a	n/a	51	n/a	n/a	-100
302.45	0	button press	n/a	n/a	n/a	n/a	n/a	54	n/a	n/a	-100
303.05	0	button press	n/a	n/a	n/a	n/a	n/a	55	n/a	n/a	-100
306.75	4.00	VV	1.00	6	2	0	0	n/a	1	14041	41
307.75	0	button press	n/a	n/a	n/a	n/a	n/a	51	n/a	n/a	-100
307.99	0	button press	n/a	n/a	n/a	n/a	n/a	55	n/a	n/a	-100
308.29	0	button press	n/a	n/a	n/a	n/a	n/a	55	n/a	n/a	-100
308.47	0	button press	n/a	n/a	n/a	n/a	n/a	55	n/a	n/a	-100
308.68	0	button press	n/a	n/a	n/a	n/a	n/a	55	n/a	n/a	-100
316.03	4.00	TT	0.83	3	2	1	1	n/a	1	14042	42
316.87	0	button press	n/a	n/a	n/a	n/a	n/a	50	n/a	n/a	-100
318.05	0	button press	n/a	n/a	n/a	n/a	n/a	55	n/a	n/a	-100
322.55	4.00	TT	1.17	2	2	1	1	n/a	1	14043	43
323.72	0	button press	n/a	n/a	n/a	n/a	n/a	50	n/a	n/a	-100
325.60	0	button press	n/a	n/a	n/a	n/a	n/a	54	n/a	n/a	-100
331.05	4.00	TT	0.95	3	2	1	1	n/a	1	14044	44
332.00	0	button press	n/a	n/a	n/a	n/a	n/a	50	n/a	n/a	-100
333.43	0	button press	n/a	n/a	n/a	n/a	n/a	54	n/a	n/a	-100
340.47	4.00	TT	0.77	6	2	1	1	n/a	1	14045	45
341.23	0	button press	n/a	n/a	n/a	n/a	n/a	50	n/a	n/a	-100
341.82	0	button press	n/a	n/a	n/a	n/a	n/a	55	n/a	n/a	-100
342.10	0	button press	n/a	n/a	n/a	n/a	n/a	55	n/a	n/a	-100
342.29	0	button press	n/a	n/a	n/a	n/a	n/a	55	n/a	n/a	-100
342.47	0	button press	n/a	n/a	n/a	n/a	n/a	55	n/a	n/a	-100
342.75	0	button press	n/a	n/a	n/a	n/a	n/a	55	n/a	n/a	-100
347.33	4.00	VV	0.83	4	2	0	0	n/a	1	14046	46
348.17	0	button press	n/a	n/a	n/a	n/a	n/a	51	n/a	n/a	-100
349.20	0	button press	n/a	n/a	n/a	n/a	n/a	55	n/a	n/a	-100
349.85	0	button press	n/a	n/a	n/a	n/a	n/a	55	n/a	n/a	-100
353.10	4.00	TV	1.28	4	2	1	0	n/a	1	14047	47
353.97	0	button press	n/a	n/a	n/a	n/a	n/a	50	n/a	n/a	-100
354.38	0	button press	n/a	n/a	n/a	n/a	n/a	51	n/a	n/a	-100
356.08	0	button press	n/a	n/a	n/a	n/a	n/a	55	n/a	n/a	-100
356.48	0	button press	n/a	n/a	n/a	n/a	n/a	54	n/a	n/a	-100
361.39	4.00	VV	0.82	4	2	0	0	n/a	1	14048	48
362.20	0	button press	n/a	n/a	n/a	n/a	n/a	51	n/a	n/a	-100
363.33	0	button press	n/a	n/a	n/a	n/a	n/a	55	n/a	n/a	-100
364.04	0	button press	n/a	n/a	n/a	n/a	n/a	55	n/a	n/a	-100
368.34	4.00	TT	0.77	6	2	1	1	n/a	1	14049	49
369.10	0	button press	n/a	n/a	n/a	n/a	n/a	50	n/a	n/a	-100
369.70	0	button press	n/a	n/a	n/a	n/a	n/a	55	n/a	n/a	-100
369.97	0	button press	n/a	n/a	n/a	n/a	n/a	55	n/a	n/a	-100
370.15	0	button press	n/a	n/a	n/a	n/a	n/a	55	n/a	n/a	-100
370.35	0	button press	n/a	n/a	n/a	n/a	n/a	55	n/a	n/a	-100
375.67	4.00	VV	1.00	6	2	0	0	n/a	1	14050	50
376.67	0	button press	n/a	n/a	n/a	n/a	n/a	51	n/a	n/a	-100
377.62	0	button press	n/a	n/a	n/a	n/a	n/a	55	n/a	n/a	-100
384.74	4.00	TV	0.88	6	2	1	0	n/a	1	14051	51
385.62	0	button press	n/a	n/a	n/a	n/a	n/a	51	n/a	n/a	-100
386.15	0	button press	n/a	n/a	n/a	n/a	n/a	55	n/a	n/a	-100
386.42	0	button press	n/a	n/a	n/a	n/a	n/a	55	n/a	n/a	-100
386.60	0	button press	n/a	n/a	n/a	n/a	n/a	55	n/a	n/a	-100
390.94	4.00	VV	1.18	4	2	0	0	n/a	1	14052	52
392.12	0	button press	n/a	n/a	n/a	n/a	n/a	51	n/a	n/a	-100
392.89	0	button press	n/a	n/a	n/a	n/a	n/a	55	n/a	n/a	-100
393.43	0	button press	n/a	n/a	n/a	n/a	n/a	54	n/a	n/a	-100
395.94	5.00	instructions	n/a	n/a	0	n/a	n/a	n/a	n/a	n/a	n/a
406.92	4.00	AC	1.26	1	0	0	1	n/a	0	14053	53
408.19	0	button press	n/a	n/a	n/a	n/a	n/a	51	n/a	n/a	-100
409.29	0	button press	n/a	n/a	n/a	n/a	n/a	54	n/a	n/a	-100
410.34	0	button press	n/a	n/a	n/a	n/a	n/a	54	n/a	n/a	-100
410.54	0	button press	n/a	n/a	n/a	n/a	n/a	54	n/a	n/a	-100
410.74	0	button press	n/a	n/a	n/a	n/a	n/a	54	n/a	n/a	-100
410.90	0	button press	n/a	n/a	n/a	n/a	n/a	54	n/a	n/a	-100
415.42	4.00	CA	0.85	2	0	1	0	n/a	0	14054	54
416.27	0	button press	n/a	n/a	n/a	n/a	n/a	50	n/a	n/a	-100
418.17	0	button press	n/a	n/a	n/a	n/a	n/a	55	n/a	n/a	-100
424.67	4.00	missed_trial	n/a	n/a	0	1	n/a	n/a	0	14055	55
426.55	0	button press	n/a	n/a	n/a	n/a	n/a	51	n/a	n/a	-100
430.84	4.00	CA	0.85	3	0	1	0	n/a	0	14056	56
431.69	0	button press	n/a	n/a	n/a	n/a	n/a	50	n/a	n/a	-100
432.67	0	button press	n/a	n/a	n/a	n/a	n/a	55	n/a	n/a	-100
433.17	0	button press	n/a	n/a	n/a	n/a	n/a	54	n/a	n/a	-100
433.42	0	button press	n/a	n/a	n/a	n/a	n/a	54	n/a	n/a	-100
436.84	4.00	CA	1.17	3	0	1	0	n/a	0	14057	57
438.00	0	button press	n/a	n/a	n/a	n/a	n/a	50	n/a	n/a	-100
444.89	4.00	CC	0.97	4	0	1	1	n/a	0	14058	58
445.85	0	button press	n/a	n/a	n/a	n/a	n/a	51	n/a	n/a	-100
447.59	0	button press	n/a	n/a	n/a	n/a	n/a	55	n/a	n/a	-100
452.13	4.00	CA	0.90	5	0	1	0	n/a	0	14059	59
453.04	0	button press	n/a	n/a	n/a	n/a	n/a	50	n/a	n/a	-100
454.50	0	button press	n/a	n/a	n/a	n/a	n/a	54	n/a	n/a	-100
458.74	4.00	AA	0.95	3	0	0	0	n/a	0	14060	60
459.69	0	button press	n/a	n/a	n/a	n/a	n/a	50	n/a	n/a	-100
467.34	4.00	CC	1.02	3	0	1	1	n/a	0	14061	61
468.35	0	button press	n/a	n/a	n/a	n/a	n/a	51	n/a	n/a	-100
469.72	0	button press	n/a	n/a	n/a	n/a	n/a	54	n/a	n/a	-100
471.12	0	button press	n/a	n/a	n/a	n/a	n/a	54	n/a	n/a	-100
473.34	4.00	AA	0.87	2	0	0	0	n/a	0	14062	62
474.20	0	button press	n/a	n/a	n/a	n/a	n/a	50	n/a	n/a	-100
474.87	0	button press	n/a	n/a	n/a	n/a	n/a	55	n/a	n/a	-100
475.14	0	button press	n/a	n/a	n/a	n/a	n/a	55	n/a	n/a	-100
476.77	0	button press	n/a	n/a	n/a	n/a	n/a	54	n/a	n/a	-100
477.05	0	button press	n/a	n/a	n/a	n/a	n/a	54	n/a	n/a	-100
479.57	4.00	CA	1.18	3	0	1	0	n/a	0	14063	63
480.42	0	button press	n/a	n/a	n/a	n/a	n/a	51	n/a	n/a	-100
480.75	0	button press	n/a	n/a	n/a	n/a	n/a	50	n/a	n/a	-100
481.40	0	button press	n/a	n/a	n/a	n/a	n/a	55	n/a	n/a	-100
481.77	0	button press	n/a	n/a	n/a	n/a	n/a	55	n/a	n/a	-100
488.90	4.00	CA	1.37	1	0	1	0	n/a	0	14064	64
490.27	0	button press	n/a	n/a	n/a	n/a	n/a	50	n/a	n/a	-100
491.50	0	button press	n/a	n/a	n/a	n/a	n/a	54	n/a	n/a	-100
494.80	4.00	AA	1.05	3	0	0	0	n/a	0	14065	65
495.85	0	button press	n/a	n/a	n/a	n/a	n/a	50	n/a	n/a	-100
497.25	0	button press	n/a	n/a	n/a	n/a	n/a	54	n/a	n/a	-100
503.19	4.00	CA	1.43	1	0	1	0	n/a	0	14066	66
504.30	0	button press	n/a	n/a	n/a	n/a	n/a	51	n/a	n/a	-100
504.62	0	button press	n/a	n/a	n/a	n/a	n/a	50	n/a	n/a	-100
505.92	0	button press	n/a	n/a	n/a	n/a	n/a	54	n/a	n/a	-100
508.90	4.00	AC	1.10	3	0	0	1	n/a	0	14067	67
510.00	0	button press	n/a	n/a	n/a	n/a	n/a	51	n/a	n/a	-100
510.85	0	button press	n/a	n/a	n/a	n/a	n/a	55	n/a	n/a	-100
511.44	0	button press	n/a	n/a	n/a	n/a	n/a	54	n/a	n/a	-100
512.09	0	button press	n/a	n/a	n/a	n/a	n/a	55	n/a	n/a	-100
515.65	4.00	AA	0.75	6	0	0	0	n/a	0	14068	68
516.40	0	button press	n/a	n/a	n/a	n/a	n/a	50	n/a	n/a	-100
516.92	0	button press	n/a	n/a	n/a	n/a	n/a	55	n/a	n/a	-100
517.17	0	button press	n/a	n/a	n/a	n/a	n/a	55	n/a	n/a	-100
517.39	0	button press	n/a	n/a	n/a	n/a	n/a	55	n/a	n/a	-100
524.39	4.00	AA	1.28	3	0	0	0	n/a	0	14069	69
525.67	0	button press	n/a	n/a	n/a	n/a	n/a	50	n/a	n/a	-100
526.49	0	button press	n/a	n/a	n/a	n/a	n/a	55	n/a	n/a	-100
526.77	0	button press	n/a	n/a	n/a	n/a	n/a	55	n/a	n/a	-100
527.37	0	button press	n/a	n/a	n/a	n/a	n/a	54	n/a	n/a	-100
533.04	4.00	AA	1.33	4	0	0	0	n/a	0	14070	70
534.37	0	button press	n/a	n/a	n/a	n/a	n/a	50	n/a	n/a	-100
540.72	4.00	missed_trial	n/a	n/a	0	1	n/a	n/a	0	14071	71
542.24	0	button press	n/a	n/a	n/a	n/a	n/a	51	n/a	n/a	-100
550.10	4.00	AA	0.75	3	0	0	0	n/a	0	14072	72
550.85	0	button press	n/a	n/a	n/a	n/a	n/a	50	n/a	n/a	-100
551.90	0	button press	n/a	n/a	n/a	n/a	n/a	55	n/a	n/a	-100
557.97	4.00	CA	1.18	4	0	1	0	n/a	0	14073	73
559.15	0	button press	n/a	n/a	n/a	n/a	n/a	50	n/a	n/a	-100
560.24	0	button press	n/a	n/a	n/a	n/a	n/a	55	n/a	n/a	-100
565.54	4.00	AA	0.93	5	0	0	0	n/a	0	14074	74
566.47	0	button press	n/a	n/a	n/a	n/a	n/a	50	n/a	n/a	-100
567.35	0	button press	n/a	n/a	n/a	n/a	n/a	55	n/a	n/a	-100
567.80	0	button press	n/a	n/a	n/a	n/a	n/a	54	n/a	n/a	-100
573.48	4.00	AA	0.82	4	0	0	0	n/a	0	14075	75
574.30	0	button press	n/a	n/a	n/a	n/a	n/a	50	n/a	n/a	-100
575.90	0	button press	n/a	n/a	n/a	n/a	n/a	55	n/a	n/a	-100
576.47	0	button press	n/a	n/a	n/a	n/a	n/a	54	n/a	n/a	-100
576.75	0	button press	n/a	n/a	n/a	n/a	n/a	54	n/a	n/a	-100
579.20	4.00	AC	1.13	1	0	0	1	n/a	0	14076	76
580.34	0	button press	n/a	n/a	n/a	n/a	n/a	51	n/a	n/a	-100
581.49	0	button press	n/a	n/a	n/a	n/a	n/a	54	n/a	n/a	-100
581.74	0	button press	n/a	n/a	n/a	n/a	n/a	54	n/a	n/a	-100
585.85	4.00	CA	0.87	1	0	1	0	n/a	0	14077	77
586.72	0	button press	n/a	n/a	n/a	n/a	n/a	50	n/a	n/a	-100
588.00	0	button press	n/a	n/a	n/a	n/a	n/a	54	n/a	n/a	-100
588.27	0	button press	n/a	n/a	n/a	n/a	n/a	54	n/a	n/a	-100
594.40	4.00	AA	1.18	1	0	0	0	n/a	0	14078	78
595.59	0	button press	n/a	n/a	n/a	n/a	n/a	50	n/a	n/a	-100
596.92	0	button press	n/a	n/a	n/a	n/a	n/a	54	n/a	n/a	-100
