onset	duration	trial_type	response_time	confidence	task	stimulus	response	key_id	include	uid	trial_number
0.00	5.00	instructions	n/a	n/a	1	n/a	n/a	n/a	n/a	n/a	n/a
10.02	4.00	NY	0.93	6	1	0	1	n/a	0	14901	1
10.97	0	button press	n/a	n/a	n/a	n/a	n/a	50	n/a	n/a	-100
12.17	0	button press	n/a	n/a	n/a	n/a	n/a	55	n/a	n/a	-100
12.47	0	button press	n/a	n/a	n/a	n/a	n/a	55	n/a	n/a	-100
12.68	0	button press	n/a	n/a	n/a	n/a	n/a	55	n/a	n/a	-100
16.28	4.00	YY	1.02	4	1	1	1	n/a	1	14902	2
17.30	0	button press	n/a	n/a	n/a	n/a	n/a	50	n/a	n/a	-100
22.45	4.00	YY	0.88	6	1	1	1	n/a	1	14903	3
23.33	0	button press	n/a	n/a	n/a	n/a	n/a	50	n/a	n/a	-100
24.38	0	button press	n/a	n/a	n/a	n/a	n/a	55	n/a	n/a	-100
24.63	0	button press	n/a	n/a	n/a	n/a	n/a	55	n/a	n/a	-100
29.28	4.00	NN	1.12	2	1	0	0	n/a	1	14904	4
30.40	0	button press	n/a	n/a	n/a	n/a	n/a	51	n/a	n/a	-100
31.92	0	button press	n/a	n/a	n/a	n/a	n/a	55	n/a	n/a	-100
37.82	4.00	NY	0.91	4	1	0	1	n/a	1	14905	5
38.73	0	button press	n/a	n/a	n/a	n/a	n/a	50	n/a	n/a	-100
39.80	0	button press	n/a	n/a	n/a	n/a	n/a	55	n/a	n/a	-100
40.07	0	button press	n/a	n/a	n/a	n/a	n/a	55	n/a	n/a	-100
43.97	4.00	YY	0.83	6	1	1	1	n/a	1	14906	6
44.80	0	button press	n/a	n/a	n/a	n/a	n/a	50	n/a	n/a	-100
45.82	0	button press	n/a	n/a	n/a	n/a	n/a	55	n/a	n/a	-100
46.02	0	button press	n/a	n/a	n/a	n/a	n/a	55	n/a	n/a	-100
46.23	0	button press	n/a	n/a	n/a	n/a	n/a	55	n/a	n/a	-100
46.43	0	button press	n/a	n/a	n/a	n/a	n/a	55	n/a	n/a	-100
51.88	4.00	NN	1.28	4	1	0	0	n/a	1	14907	7
53.17	0	button press	n/a	n/a	n/a	n/a	n/a	51	n/a	n/a	-100
54.08	0	button press	n/a	n/a	n/a	n/a	n/a	55	n/a	n/a	-100
54.38	0	button press	n/a	n/a	n/a	n/a	n/a	55	n/a	n/a	-100
55.06	0	button press	n/a	n/a	n/a	n/a	n/a	55	n/a	n/a	-100
58.15	4.00	NY	0.98	6	1	0	1	n/a	1	14908	8
59.13	0	button press	n/a	n/a	n/a	n/a	n/a	50	n/a	n/a	-100
60.05	0	button press	n/a	n/a	n/a	n/a	n/a	55	n/a	n/a	-100
64.77	4.00	YY	0.87	6	1	1	1	n/a	1	14909	9
65.63	0	button press	n/a	n/a	n/a	n/a	n/a	50	n/a	n/a	-100
67.10	0	button press	n/a	n/a	n/a	n/a	n/a	55	n/a	n/a	-100
67.40	0	button press	n/a	n/a	n/a	n/a	n/a	55	n/a	n/a	-100
67.82	0	button press	n/a	n/a	n/a	n/a	n/a	55	n/a	n/a	-100
72.63	4.00	YY	0.97	6	1	1	1	n/a	1	14910	10
73.60	0	button press	n/a	n/a	n/a	n/a	n/a	50	n/a	n/a	-100
74.75	0	button press	n/a	n/a	n/a	n/a	n/a	55	n/a	n/a	-100
75.03	0	button press	n/a	n/a	n/a	n/a	n/a	55	n/a	n/a	-100
75.28	0	button press	n/a	n/a	n/a	n/a	n/a	55	n/a	n/a	-100
76.07	0	button press	n/a	n/a	n/a	n/a	n/a	55	n/a	n/a	-100
80.68	4.00	NN	0.93	5	1	0	0	n/a	1	14911	11
81.62	0	button press	n/a	n/a	n/a	n/a	n/a	51	n/a	n/a	-100
82.62	0	button press	n/a	n/a	n/a	n/a	n/a	55	n/a	n/a	-100
86.28	4.00	NY	1.13	5	1	0	1	n/a	1	14912	12
87.42	0	button press	n/a	n/a	n/a	n/a	n/a	50	n/a	n/a	-100
88.33	0	button press	n/a	n/a	n/a	n/a	n/a	55	n/a	n/a	-100
88.58	0	button press	n/a	n/a	n/a	n/a	n/a	55	n/a	n/a	-100
88.80	0	button press	n/a	n/a	n/a	n/a	n/a	55	n/a	n/a	-100
89.08	0	button press	n/a	n/a	n/a	n/a	n/a	55	n/a	n/a	-100
93.32	4.00	YY	0.90	6	1	1	1	n/a	1	14913	13
94.22	0	button press	n/a	n/a	n/a	n/a	n/a	50	n/a	n/a	-100
95.32	0	button press	n/a	n/a	n/a	n/a	n/a	55	n/a	n/a	-100
95.47	0	button press	n/a	n/a	n/a	n/a	n/a	55	n/a	n/a	-100
101.30	4.00	YY	0.87	6	1	1	1	n/a	1	14914	14
102.17	0	button press	n/a	n/a	n/a	n/a	n/a	50	n/a	n/a	-100
103.15	0	button press	n/a	n/a	n/a	n/a	n/a	55	n/a	n/a	-100
103.47	0	button press	n/a	n/a	n/a	n/a	n/a	55	n/a	n/a	-100
109.93	4.00	YY	0.90	6	1	1	1	n/a	1	14915	15
110.83	0	button press	n/a	n/a	n/a	n/a	n/a	50	n/a	n/a	-100
111.97	0	button press	n/a	n/a	n/a	n/a	n/a	55	n/a	n/a	-100
112.20	0	button press	n/a	n/a	n/a	n/a	n/a	55	n/a	n/a	-100
112.40	0	button press	n/a	n/a	n/a	n/a	n/a	55	n/a	n/a	-100
112.60	0	button press	n/a	n/a	n/a	n/a	n/a	55	n/a	n/a	-100
118.53	4.00	NN	0.90	6	1	0	0	n/a	1	14916	16
119.43	0	button press	n/a	n/a	n/a	n/a	n/a	51	n/a	n/a	-100
120.42	0	button press	n/a	n/a	n/a	n/a	n/a	55	n/a	n/a	-100
120.68	0	button press	n/a	n/a	n/a	n/a	n/a	55	n/a	n/a	-100
120.88	0	button press	n/a	n/a	n/a	n/a	n/a	55	n/a	n/a	-100
121.10	0	button press	n/a	n/a	n/a	n/a	n/a	55	n/a	n/a	-100
121.30	0	button press	n/a	n/a	n/a	n/a	n/a	55	n/a	n/a	-100
126.52	4.00	YY	1.08	6	1	1	1	n/a	1	14917	17
127.60	0	button press	n/a	n/a	n/a	n/a	n/a	50	n/a	n/a	-100
128.87	0	button press	n/a	n/a	n/a	n/a	n/a	55	n/a	n/a	-100
132.13	4.00	NN	0.90	6	1	0	0	n/a	1	14918	18
133.03	0	button press	n/a	n/a	n/a	n/a	n/a	51	n/a	n/a	-100
134.88	0	button press	n/a	n/a	n/a	n/a	n/a	55	n/a	n/a	-100
138.07	4.00	NY	0.97	6	1	0	1	n/a	1	14919	19
139.03	0	button press	n/a	n/a	n/a	n/a	n/a	50	n/a	n/a	-100
139.97	0	button press	n/a	n/a	n/a	n/a	n/a	55	n/a	n/a	-100
140.22	0	button press	n/a	n/a	n/a	n/a	n/a	55	n/a	n/a	-100
140.45	0	button press	n/a	n/a	n/a	n/a	n/a	55	n/a	n/a	-100
145.77	4.00	YY	0.88	6	1	1	1	n/a	1	14920	20
146.65	0	button press	n/a	n/a	n/a	n/a	n/a	50	n/a	n/a	-100
147.61	0	button press	n/a	n/a	n/a	n/a	n/a	55	n/a	n/a	-100
147.88	0	button press	n/a	n/a	n/a	n/a	n/a	55	n/a	n/a	-100
154.35	4.00	YY	0.87	6	1	1	1	n/a	1	14921	21
155.22	0	button press	n/a	n/a	n/a	n/a	n/a	50	n/a	n/a	-100
156.27	0	button press	n/a	n/a	n/a	n/a	n/a	55	n/a	n/a	-100
156.53	0	button press	n/a	n/a	n/a	n/a	n/a	55	n/a	n/a	-100
156.72	0	button press	n/a	n/a	n/a	n/a	n/a	55	n/a	n/a	-100
156.92	0	button press	n/a	n/a	n/a	n/a	n/a	55	n/a	n/a	-100
162.05	4.00	NN	0.97	6	1	0	0	n/a	1	14922	22
163.02	0	button press	n/a	n/a	n/a	n/a	n/a	51	n/a	n/a	-100
163.92	0	button press	n/a	n/a	n/a	n/a	n/a	55	n/a	n/a	-100
164.20	0	button press	n/a	n/a	n/a	n/a	n/a	55	n/a	n/a	-100
164.45	0	button press	n/a	n/a	n/a	n/a	n/a	55	n/a	n/a	-100
169.08	4.00	YY	0.80	6	1	1	1	n/a	1	14923	23
169.88	0	button press	n/a	n/a	n/a	n/a	n/a	50	n/a	n/a	-100
171.02	0	button press	n/a	n/a	n/a	n/a	n/a	55	n/a	n/a	-100
171.27	0	button press	n/a	n/a	n/a	n/a	n/a	55	n/a	n/a	-100
171.47	0	button press	n/a	n/a	n/a	n/a	n/a	55	n/a	n/a	-100
171.72	0	button press	n/a	n/a	n/a	n/a	n/a	55	n/a	n/a	-100
176.00	4.00	NY	0.85	6	1	0	1	n/a	1	14924	24
176.85	0	button press	n/a	n/a	n/a	n/a	n/a	50	n/a	n/a	-100
178.03	0	button press	n/a	n/a	n/a	n/a	n/a	55	n/a	n/a	-100
178.30	0	button press	n/a	n/a	n/a	n/a	n/a	55	n/a	n/a	-100
178.52	0	button press	n/a	n/a	n/a	n/a	n/a	55	n/a	n/a	-100
183.47	4.00	YY	0.85	6	1	1	1	n/a	1	14925	25
184.32	0	button press	n/a	n/a	n/a	n/a	n/a	50	n/a	n/a	-100
191.15	4.00	NN	0.90	6	1	0	0	n/a	1	14926	26
192.05	0	button press	n/a	n/a	n/a	n/a	n/a	51	n/a	n/a	-100
193.07	0	button press	n/a	n/a	n/a	n/a	n/a	55	n/a	n/a	-100
196.15	5.00	instructions	n/a	n/a	0	n/a	n/a	n/a	n/a	n/a	n/a
208.85	4.00	CC	1.05	6	0	1	1	n/a	0	14927	27
209.90	0	button press	n/a	n/a	n/a	n/a	n/a	51	n/a	n/a	-100
211.00	0	button press	n/a	n/a	n/a	n/a	n/a	55	n/a	n/a	-100
211.22	0	button press	n/a	n/a	n/a	n/a	n/a	55	n/a	n/a	-100
216.37	4.00	CC	0.87	6	0	1	1	n/a	1	14928	28
217.23	0	button press	n/a	n/a	n/a	n/a	n/a	51	n/a	n/a	-100
218.30	0	button press	n/a	n/a	n/a	n/a	n/a	55	n/a	n/a	-100
218.55	0	button press	n/a	n/a	n/a	n/a	n/a	55	n/a	n/a	-100
218.75	0	button press	n/a	n/a	n/a	n/a	n/a	55	n/a	n/a	-100
218.95	0	button press	n/a	n/a	n/a	n/a	n/a	55	n/a	n/a	-100
224.05	4.00	AA	1.00	4	0	0	0	n/a	1	14929	29
225.05	0	button press	n/a	n/a	n/a	n/a	n/a	50	n/a	n/a	-100
226.15	0	button press	n/a	n/a	n/a	n/a	n/a	55	n/a	n/a	-100
226.38	0	button press	n/a	n/a	n/a	n/a	n/a	55	n/a	n/a	-100
226.62	0	button press	n/a	n/a	n/a	n/a	n/a	55	n/a	n/a	-100
231.10	4.00	CC	1.13	6	0	1	1	n/a	1	14930	30
232.23	0	button press	n/a	n/a	n/a	n/a	n/a	51	n/a	n/a	-100
233.12	0	button press	n/a	n/a	n/a	n/a	n/a	55	n/a	n/a	-100
233.33	0	button press	n/a	n/a	n/a	n/a	n/a	55	n/a	n/a	-100
233.55	0	button press	n/a	n/a	n/a	n/a	n/a	55	n/a	n/a	-100
233.73	0	button press	n/a	n/a	n/a	n/a	n/a	55	n/a	n/a	-100
238.88	4.00	AC	1.10	4	0	0	1	n/a	1	14931	31
239.98	0	button press	n/a	n/a	n/a	n/a	n/a	51	n/a	n/a	-100
241.03	0	button press	n/a	n/a	n/a	n/a	n/a	55	n/a	n/a	-100
241.60	0	button press	n/a	n/a	n/a	n/a	n/a	55	n/a	n/a	-100
247.50	4.00	AA	1.12	6	0	0	0	n/a	1	14932	32
248.62	0	button press	n/a	n/a	n/a	n/a	n/a	50	n/a	n/a	-100
249.53	0	button press	n/a	n/a	n/a	n/a	n/a	55	n/a	n/a	-100
249.80	0	button press	n/a	n/a	n/a	n/a	n/a	55	n/a	n/a	-100
250.03	0	button press	n/a	n/a	n/a	n/a	n/a	55	n/a	n/a	-100
250.25	0	button press	n/a	n/a	n/a	n/a	n/a	55	n/a	n/a	-100
250.43	0	button press	n/a	n/a	n/a	n/a	n/a	55	n/a	n/a	-100
255.85	4.00	CA	1.30	4	0	1	0	n/a	1	14933	33
257.15	0	button press	n/a	n/a	n/a	n/a	n/a	50	n/a	n/a	-100
258.05	0	button press	n/a	n/a	n/a	n/a	n/a	55	n/a	n/a	-100
258.35	0	button press	n/a	n/a	n/a	n/a	n/a	55	n/a	n/a	-100
258.47	0	button press	n/a	n/a	n/a	n/a	n/a	55	n/a	n/a	-100
259.05	0	button press	n/a	n/a	n/a	n/a	n/a	54	n/a	n/a	-100
263.60	4.00	AA	1.10	6	0	0	0	n/a	1	14934	34
264.70	0	button press	n/a	n/a	n/a	n/a	n/a	50	n/a	n/a	-100
265.90	0	button press	n/a	n/a	n/a	n/a	n/a	55	n/a	n/a	-100
270.60	4.00	CA	0.98	6	0	1	0	n/a	1	14935	35
271.58	0	button press	n/a	n/a	n/a	n/a	n/a	50	n/a	n/a	-100
277.45	4.00	AA	1.33	4	0	0	0	n/a	1	14936	36
278.78	0	button press	n/a	n/a	n/a	n/a	n/a	50	n/a	n/a	-100
279.97	0	button press	n/a	n/a	n/a	n/a	n/a	55	n/a	n/a	-100
284.40	4.00	AA	0.92	6	0	0	0	n/a	1	14937	37
285.32	0	button press	n/a	n/a	n/a	n/a	n/a	50	n/a	n/a	-100
291.67	4.00	AA	0.97	6	0	0	0	n/a	1	14938	38
292.63	0	button press	n/a	n/a	n/a	n/a	n/a	50	n/a	n/a	-100
293.62	0	button press	n/a	n/a	n/a	n/a	n/a	55	n/a	n/a	-100
293.85	0	button press	n/a	n/a	n/a	n/a	n/a	55	n/a	n/a	-100
294.05	0	button press	n/a	n/a	n/a	n/a	n/a	55	n/a	n/a	-100
294.27	0	button press	n/a	n/a	n/a	n/a	n/a	55	n/a	n/a	-100
294.45	0	button press	n/a	n/a	n/a	n/a	n/a	55	n/a	n/a	-100
299.30	4.00	AA	0.92	6	0	0	0	n/a	1	14939	39
300.22	0	button press	n/a	n/a	n/a	n/a	n/a	50	n/a	n/a	-100
301.25	0	button press	n/a	n/a	n/a	n/a	n/a	55	n/a	n/a	-100
301.47	0	button press	n/a	n/a	n/a	n/a	n/a	55	n/a	n/a	-100
301.65	0	button press	n/a	n/a	n/a	n/a	n/a	55	n/a	n/a	-100
301.85	0	button press	n/a	n/a	n/a	n/a	n/a	55	n/a	n/a	-100
302.07	0	button press	n/a	n/a	n/a	n/a	n/a	55	n/a	n/a	-100
307.87	4.00	CC	1.05	6	0	1	1	n/a	1	14940	40
308.92	0	button press	n/a	n/a	n/a	n/a	n/a	51	n/a	n/a	-100
309.83	0	button press	n/a	n/a	n/a	n/a	n/a	55	n/a	n/a	-100
310.10	0	button press	n/a	n/a	n/a	n/a	n/a	55	n/a	n/a	-100
310.30	0	button press	n/a	n/a	n/a	n/a	n/a	55	n/a	n/a	-100
316.12	4.00	CC	0.93	6	0	1	1	n/a	1	14941	41
317.05	0	button press	n/a	n/a	n/a	n/a	n/a	51	n/a	n/a	-100
321.88	4.00	CC	1.12	6	0	1	1	n/a	1	14942	42
323.00	0	button press	n/a	n/a	n/a	n/a	n/a	51	n/a	n/a	-100
323.85	0	button press	n/a	n/a	n/a	n/a	n/a	55	n/a	n/a	-100
324.08	0	button press	n/a	n/a	n/a	n/a	n/a	55	n/a	n/a	-100
329.40	4.00	CC	0.92	6	0	1	1	n/a	1	14943	43
330.32	0	button press	n/a	n/a	n/a	n/a	n/a	51	n/a	n/a	-100
331.57	0	button press	n/a	n/a	n/a	n/a	n/a	55	n/a	n/a	-100
336.50	4.00	AA	0.92	6	0	0	0	n/a	1	14944	44
337.42	0	button press	n/a	n/a	n/a	n/a	n/a	50	n/a	n/a	-100
338.45	0	button press	n/a	n/a	n/a	n/a	n/a	55	n/a	n/a	-100
338.68	0	button press	n/a	n/a	n/a	n/a	n/a	55	n/a	n/a	-100
344.63	4.00	CC	1.03	6	0	1	1	n/a	1	14945	45
345.67	0	button press	n/a	n/a	n/a	n/a	n/a	51	n/a	n/a	-100
346.57	0	button press	n/a	n/a	n/a	n/a	n/a	55	n/a	n/a	-100
346.82	0	button press	n/a	n/a	n/a	n/a	n/a	55	n/a	n/a	-100
352.82	4.00	AA	1.00	6	0	0	0	n/a	1	14946	46
353.82	0	button press	n/a	n/a	n/a	n/a	n/a	50	n/a	n/a	-100
354.80	0	button press	n/a	n/a	n/a	n/a	n/a	55	n/a	n/a	-100
355.02	0	button press	n/a	n/a	n/a	n/a	n/a	55	n/a	n/a	-100
355.20	0	button press	n/a	n/a	n/a	n/a	n/a	55	n/a	n/a	-100
355.38	0	button press	n/a	n/a	n/a	n/a	n/a	55	n/a	n/a	-100
359.60	4.00	AC	0.97	1	0	0	1	n/a	1	14947	47
360.57	0	button press	n/a	n/a	n/a	n/a	n/a	51	n/a	n/a	-100
361.93	0	button press	n/a	n/a	n/a	n/a	n/a	54	n/a	n/a	-100
365.22	4.00	CC	1.08	6	0	1	1	n/a	1	14948	48
366.30	0	button press	n/a	n/a	n/a	n/a	n/a	51	n/a	n/a	-100
367.18	0	button press	n/a	n/a	n/a	n/a	n/a	55	n/a	n/a	-100
372.00	4.00	AC	1.02	6	0	0	1	n/a	1	14949	49
373.02	0	button press	n/a	n/a	n/a	n/a	n/a	51	n/a	n/a	-100
374.05	0	button press	n/a	n/a	n/a	n/a	n/a	55	n/a	n/a	-100
379.80	4.00	CC	1.32	4	0	1	1	n/a	1	14950	50
381.12	0	button press	n/a	n/a	n/a	n/a	n/a	51	n/a	n/a	-100
386.65	4.00	AA	1.10	6	0	0	0	n/a	1	14951	51
387.75	0	button press	n/a	n/a	n/a	n/a	n/a	50	n/a	n/a	-100
388.83	0	button press	n/a	n/a	n/a	n/a	n/a	55	n/a	n/a	-100
389.07	0	button press	n/a	n/a	n/a	n/a	n/a	55	n/a	n/a	-100
392.93	4.00	CC	1.18	6	0	1	1	n/a	1	14952	52
394.12	0	button press	n/a	n/a	n/a	n/a	n/a	51	n/a	n/a	-100
394.82	0	button press	n/a	n/a	n/a	n/a	n/a	55	n/a	n/a	-100
395.07	0	button press	n/a	n/a	n/a	n/a	n/a	55	n/a	n/a	-100
395.25	0	button press	n/a	n/a	n/a	n/a	n/a	55	n/a	n/a	-100
395.45	0	button press	n/a	n/a	n/a	n/a	n/a	55	n/a	n/a	-100
397.93	5.00	instructions	n/a	n/a	2	n/a	n/a	n/a	n/a	n/a	n/a
411.40	4.00	TV	1.22	6	2	1	0	n/a	0	14953	53
412.62	0	button press	n/a	n/a	n/a	n/a	n/a	51	n/a	n/a	-100
413.62	0	button press	n/a	n/a	n/a	n/a	n/a	55	n/a	n/a	-100
419.32	4.00	VV	1.13	6	2	0	0	n/a	0	14954	54
420.45	0	button press	n/a	n/a	n/a	n/a	n/a	51	n/a	n/a	-100
421.60	0	button press	n/a	n/a	n/a	n/a	n/a	55	n/a	n/a	-100
421.80	0	button press	n/a	n/a	n/a	n/a	n/a	55	n/a	n/a	-100
422.02	0	button press	n/a	n/a	n/a	n/a	n/a	55	n/a	n/a	-100
425.00	4.00	TV	0.97	6	2	1	0	n/a	0	14955	55
425.97	0	button press	n/a	n/a	n/a	n/a	n/a	51	n/a	n/a	-100
426.98	0	button press	n/a	n/a	n/a	n/a	n/a	55	n/a	n/a	-100
427.23	0	button press	n/a	n/a	n/a	n/a	n/a	55	n/a	n/a	-100
427.43	0	button press	n/a	n/a	n/a	n/a	n/a	55	n/a	n/a	-100
427.62	0	button press	n/a	n/a	n/a	n/a	n/a	55	n/a	n/a	-100
427.80	0	button press	n/a	n/a	n/a	n/a	n/a	55	n/a	n/a	-100
433.10	4.00	TT	0.90	6	2	1	1	n/a	0	14956	56
434.00	0	button press	n/a	n/a	n/a	n/a	n/a	50	n/a	n/a	-100
434.90	0	button press	n/a	n/a	n/a	n/a	n/a	55	n/a	n/a	-100
435.12	0	button press	n/a	n/a	n/a	n/a	n/a	55	n/a	n/a	-100
439.88	4.00	TT	1.03	6	2	1	1	n/a	0	14957	57
440.92	0	button press	n/a	n/a	n/a	n/a	n/a	50	n/a	n/a	-100
441.72	0	button press	n/a	n/a	n/a	n/a	n/a	55	n/a	n/a	-100
441.97	0	button press	n/a	n/a	n/a	n/a	n/a	55	n/a	n/a	-100
442.15	0	button press	n/a	n/a	n/a	n/a	n/a	55	n/a	n/a	-100
442.33	0	button press	n/a	n/a	n/a	n/a	n/a	55	n/a	n/a	-100
447.77	4.00	VV	1.03	6	2	0	0	n/a	0	14958	58
448.80	0	button press	n/a	n/a	n/a	n/a	n/a	51	n/a	n/a	-100
449.73	0	button press	n/a	n/a	n/a	n/a	n/a	55	n/a	n/a	-100
450.02	0	button press	n/a	n/a	n/a	n/a	n/a	55	n/a	n/a	-100
450.23	0	button press	n/a	n/a	n/a	n/a	n/a	55	n/a	n/a	-100
450.52	0	button press	n/a	n/a	n/a	n/a	n/a	55	n/a	n/a	-100
455.53	4.00	VT	1.03	4	2	0	1	n/a	0	14959	59
456.57	0	button press	n/a	n/a	n/a	n/a	n/a	50	n/a	n/a	-100
457.50	0	button press	n/a	n/a	n/a	n/a	n/a	55	n/a	n/a	-100
457.83	0	button press	n/a	n/a	n/a	n/a	n/a	55	n/a	n/a	-100
461.23	4.00	VV	1.03	6	2	0	0	n/a	0	14960	60
462.27	0	button press	n/a	n/a	n/a	n/a	n/a	51	n/a	n/a	-100
463.20	0	button press	n/a	n/a	n/a	n/a	n/a	55	n/a	n/a	-100
463.42	0	button press	n/a	n/a	n/a	n/a	n/a	55	n/a	n/a	-100
463.62	0	button press	n/a	n/a	n/a	n/a	n/a	55	n/a	n/a	-100
463.85	0	button press	n/a	n/a	n/a	n/a	n/a	55	n/a	n/a	-100
469.10	4.00	VV	1.03	6	2	0	0	n/a	0	14961	61
470.13	0	button press	n/a	n/a	n/a	n/a	n/a	51	n/a	n/a	-100
471.10	0	button press	n/a	n/a	n/a	n/a	n/a	55	n/a	n/a	-100
471.33	0	button press	n/a	n/a	n/a	n/a	n/a	55	n/a	n/a	-100
477.42	4.00	TV	0.92	6	2	1	0	n/a	0	14962	62
478.33	0	button press	n/a	n/a	n/a	n/a	n/a	51	n/a	n/a	-100
479.33	0	button press	n/a	n/a	n/a	n/a	n/a	55	n/a	n/a	-100
479.58	0	button press	n/a	n/a	n/a	n/a	n/a	55	n/a	n/a	-100
485.35	4.00	TV	0.95	6	2	1	0	n/a	0	14963	63
486.30	0	button press	n/a	n/a	n/a	n/a	n/a	51	n/a	n/a	-100
487.32	0	button press	n/a	n/a	n/a	n/a	n/a	55	n/a	n/a	-100
493.13	4.00	TT	1.22	4	2	1	1	n/a	0	14964	64
494.35	0	button press	n/a	n/a	n/a	n/a	n/a	50	n/a	n/a	-100
500.80	4.00	missed_trial	n/a	n/a	2	0	n/a	n/a	0	14965	65
502.35	0	button press	n/a	n/a	n/a	n/a	n/a	51	n/a	n/a	-100
507.00	4.00	VV	0.88	6	2	0	0	n/a	0	14966	66
507.88	0	button press	n/a	n/a	n/a	n/a	n/a	51	n/a	n/a	-100
508.85	0	button press	n/a	n/a	n/a	n/a	n/a	55	n/a	n/a	-100
509.05	0	button press	n/a	n/a	n/a	n/a	n/a	55	n/a	n/a	-100
509.43	0	button press	n/a	n/a	n/a	n/a	n/a	55	n/a	n/a	-100
509.62	0	button press	n/a	n/a	n/a	n/a	n/a	55	n/a	n/a	-100
509.87	0	button press	n/a	n/a	n/a	n/a	n/a	55	n/a	n/a	-100
515.10	4.00	TT	0.95	6	2	1	1	n/a	0	14967	67
516.05	0	button press	n/a	n/a	n/a	n/a	n/a	50	n/a	n/a	-100
517.02	0	button press	n/a	n/a	n/a	n/a	n/a	55	n/a	n/a	-100
517.28	0	button press	n/a	n/a	n/a	n/a	n/a	55	n/a	n/a	-100
517.50	0	button press	n/a	n/a	n/a	n/a	n/a	55	n/a	n/a	-100
523.70	4.00	VV	0.88	6	2	0	0	n/a	0	14968	68
524.58	0	button press	n/a	n/a	n/a	n/a	n/a	51	n/a	n/a	-100
525.67	0	button press	n/a	n/a	n/a	n/a	n/a	55	n/a	n/a	-100
525.87	0	button press	n/a	n/a	n/a	n/a	n/a	55	n/a	n/a	-100
532.03	4.00	TV	1.00	6	2	1	0	n/a	0	14969	69
533.03	0	button press	n/a	n/a	n/a	n/a	n/a	51	n/a	n/a	-100
533.95	0	button press	n/a	n/a	n/a	n/a	n/a	55	n/a	n/a	-100
534.18	0	button press	n/a	n/a	n/a	n/a	n/a	55	n/a	n/a	-100
534.42	0	button press	n/a	n/a	n/a	n/a	n/a	55	n/a	n/a	-100
540.58	4.00	VV	0.87	6	2	0	0	n/a	0	14970	70
541.45	0	button press	n/a	n/a	n/a	n/a	n/a	51	n/a	n/a	-100
542.42	0	button press	n/a	n/a	n/a	n/a	n/a	55	n/a	n/a	-100
542.63	0	button press	n/a	n/a	n/a	n/a	n/a	55	n/a	n/a	-100
547.00	4.00	TT	0.87	6	2	1	1	n/a	0	14971	71
547.87	0	button press	n/a	n/a	n/a	n/a	n/a	50	n/a	n/a	-100
549.13	0	button press	n/a	n/a	n/a	n/a	n/a	55	n/a	n/a	-100
549.35	0	button press	n/a	n/a	n/a	n/a	n/a	55	n/a	n/a	-100
549.53	0	button press	n/a	n/a	n/a	n/a	n/a	55	n/a	n/a	-100
549.72	0	button press	n/a	n/a	n/a	n/a	n/a	55	n/a	n/a	-100
549.92	0	button press	n/a	n/a	n/a	n/a	n/a	55	n/a	n/a	-100
550.10	0	button press	n/a	n/a	n/a	n/a	n/a	55	n/a	n/a	-100
555.15	4.00	TT	0.88	6	2	1	1	n/a	0	14972	72
556.03	0	button press	n/a	n/a	n/a	n/a	n/a	50	n/a	n/a	-100
557.03	0	button press	n/a	n/a	n/a	n/a	n/a	55	n/a	n/a	-100
557.38	0	button press	n/a	n/a	n/a	n/a	n/a	55	n/a	n/a	-100
557.63	0	button press	n/a	n/a	n/a	n/a	n/a	55	n/a	n/a	-100
562.60	4.00	VV	0.92	6	2	0	0	n/a	0	14973	73
563.52	0	button press	n/a	n/a	n/a	n/a	n/a	51	n/a	n/a	-100
564.43	0	button press	n/a	n/a	n/a	n/a	n/a	55	n/a	n/a	-100
564.67	0	button press	n/a	n/a	n/a	n/a	n/a	55	n/a	n/a	-100
568.87	4.00	VV	0.95	6	2	0	0	n/a	0	14974	74
569.82	0	button press	n/a	n/a	n/a	n/a	n/a	51	n/a	n/a	-100
570.72	0	button press	n/a	n/a	n/a	n/a	n/a	55	n/a	n/a	-100
570.93	0	button press	n/a	n/a	n/a	n/a	n/a	55	n/a	n/a	-100
574.70	4.00	TV	1.02	6	2	1	0	n/a	0	14975	75
575.72	0	button press	n/a	n/a	n/a	n/a	n/a	51	n/a	n/a	-100
576.73	0	button press	n/a	n/a	n/a	n/a	n/a	55	n/a	n/a	-100
576.95	0	button press	n/a	n/a	n/a	n/a	n/a	55	n/a	n/a	-100
582.67	4.00	VV	0.95	6	2	0	0	n/a	0	14976	76
583.62	0	button press	n/a	n/a	n/a	n/a	n/a	51	n/a	n/a	-100
588.72	4.00	VV	0.88	6	2	0	0	n/a	0	14977	77
589.60	0	button press	n/a	n/a	n/a	n/a	n/a	51	n/a	n/a	-100
590.82	0	button press	n/a	n/a	n/a	n/a	n/a	55	n/a	n/a	-100
591.05	0	button press	n/a	n/a	n/a	n/a	n/a	55	n/a	n/a	-100
591.25	0	button press	n/a	n/a	n/a	n/a	n/a	55	n/a	n/a	-100
591.43	0	button press	n/a	n/a	n/a	n/a	n/a	55	n/a	n/a	-100
594.47	4.00	TV	0.88	6	2	1	0	n/a	0	14978	78
595.35	0	button press	n/a	n/a	n/a	n/a	n/a	51	n/a	n/a	-100
596.48	0	button press	n/a	n/a	n/a	n/a	n/a	55	n/a	n/a	-100
596.72	0	button press	n/a	n/a	n/a	n/a	n/a	55	n/a	n/a	-100
596.93	0	button press	n/a	n/a	n/a	n/a	n/a	55	n/a	n/a	-100
