onset	duration	trial_type	response_time	confidence	task	stimulus	response	key_id	include	uid	trial_number
0.00	5.00	instructions	n/a	n/a	2	n/a	n/a	n/a	n/a	n/a	n/a
10.02	4.00	TV	1.06	5	2	1	0	n/a	0	1001	1
11.10	0	button press	n/a	n/a	n/a	n/a	n/a	51	n/a	n/a	-100
12.55	0	button press	n/a	n/a	n/a	n/a	n/a	55	n/a	n/a	-100
16.10	4.00	VV	1.13	4	2	0	0	n/a	1	1002	2
17.23	0	button press	n/a	n/a	n/a	n/a	n/a	51	n/a	n/a	-100
18.28	0	button press	n/a	n/a	n/a	n/a	n/a	55	n/a	n/a	-100
19.04	0	button press	n/a	n/a	n/a	n/a	n/a	55	n/a	n/a	-100
24.65	4.00	VV	1.23	4	2	0	0	n/a	1	1003	3
25.88	0	button press	n/a	n/a	n/a	n/a	n/a	51	n/a	n/a	-100
26.75	0	button press	n/a	n/a	n/a	n/a	n/a	54	n/a	n/a	-100
27.40	0	button press	n/a	n/a	n/a	n/a	n/a	54	n/a	n/a	-100
30.98	4.00	TT	0.88	6	2	1	1	n/a	1	1004	4
31.87	0	button press	n/a	n/a	n/a	n/a	n/a	50	n/a	n/a	-100
32.53	0	button press	n/a	n/a	n/a	n/a	n/a	54	n/a	n/a	-100
36.87	4.00	TT	1.33	6	2	1	1	n/a	1	1005	5
37.80	0	button press	n/a	n/a	n/a	n/a	n/a	54	n/a	n/a	-100
38.20	0	button press	n/a	n/a	n/a	n/a	n/a	50	n/a	n/a	-100
38.97	0	button press	n/a	n/a	n/a	n/a	n/a	54	n/a	n/a	-100
45.25	4.00	TT	0.93	6	2	1	1	n/a	1	1006	6
46.18	0	button press	n/a	n/a	n/a	n/a	n/a	50	n/a	n/a	-100
47.13	0	button press	n/a	n/a	n/a	n/a	n/a	54	n/a	n/a	-100
47.43	0	button press	n/a	n/a	n/a	n/a	n/a	54	n/a	n/a	-100
47.68	0	button press	n/a	n/a	n/a	n/a	n/a	54	n/a	n/a	-100
47.98	0	button press	n/a	n/a	n/a	n/a	n/a	54	n/a	n/a	-100
48.37	0	button press	n/a	n/a	n/a	n/a	n/a	54	n/a	n/a	-100
52.87	4.00	VV	0.93	5	2	0	0	n/a	1	1007	7
53.80	0	button press	n/a	n/a	n/a	n/a	n/a	51	n/a	n/a	-100
59.50	4.00	VV	0.98	6	2	0	0	n/a	1	1008	8
60.48	0	button press	n/a	n/a	n/a	n/a	n/a	51	n/a	n/a	-100
61.25	0	button press	n/a	n/a	n/a	n/a	n/a	54	n/a	n/a	-100
61.58	0	button press	n/a	n/a	n/a	n/a	n/a	54	n/a	n/a	-100
61.87	0	button press	n/a	n/a	n/a	n/a	n/a	54	n/a	n/a	-100
67.62	4.00	VV	0.93	6	2	0	0	n/a	1	1009	9
68.55	0	button press	n/a	n/a	n/a	n/a	n/a	51	n/a	n/a	-100
69.43	0	button press	n/a	n/a	n/a	n/a	n/a	54	n/a	n/a	-100
69.75	0	button press	n/a	n/a	n/a	n/a	n/a	54	n/a	n/a	-100
70.38	0	button press	n/a	n/a	n/a	n/a	n/a	54	n/a	n/a	-100
76.63	4.00	TT	1.12	5	2	1	1	n/a	1	1010	10
77.75	0	button press	n/a	n/a	n/a	n/a	n/a	50	n/a	n/a	-100
82.25	4.00	TT	0.95	5	2	1	1	n/a	1	1011	11
83.20	0	button press	n/a	n/a	n/a	n/a	n/a	50	n/a	n/a	-100
84.05	0	button press	n/a	n/a	n/a	n/a	n/a	54	n/a	n/a	-100
84.37	0	button press	n/a	n/a	n/a	n/a	n/a	54	n/a	n/a	-100
84.62	0	button press	n/a	n/a	n/a	n/a	n/a	54	n/a	n/a	-100
84.95	0	button press	n/a	n/a	n/a	n/a	n/a	54	n/a	n/a	-100
90.52	4.00	VV	1.10	3	2	0	0	n/a	1	1012	12
91.62	0	button press	n/a	n/a	n/a	n/a	n/a	51	n/a	n/a	-100
93.03	0	button press	n/a	n/a	n/a	n/a	n/a	54	n/a	n/a	-100
99.03	4.00	TV	0.90	6	2	1	0	n/a	1	1013	13
99.93	0	button press	n/a	n/a	n/a	n/a	n/a	51	n/a	n/a	-100
104.82	4.00	VV	1.02	4	2	0	0	n/a	1	1014	14
105.83	0	button press	n/a	n/a	n/a	n/a	n/a	51	n/a	n/a	-100
106.91	0	button press	n/a	n/a	n/a	n/a	n/a	54	n/a	n/a	-100
107.38	0	button press	n/a	n/a	n/a	n/a	n/a	54	n/a	n/a	-100
111.73	4.00	TT	0.83	6	2	1	1	n/a	1	1015	15
112.57	0	button press	n/a	n/a	n/a	n/a	n/a	50	n/a	n/a	-100
113.62	0	button press	n/a	n/a	n/a	n/a	n/a	54	n/a	n/a	-100
113.90	0	button press	n/a	n/a	n/a	n/a	n/a	54	n/a	n/a	-100
114.18	0	button press	n/a	n/a	n/a	n/a	n/a	54	n/a	n/a	-100
114.42	0	button press	n/a	n/a	n/a	n/a	n/a	54	n/a	n/a	-100
119.97	4.00	VV	1.03	4	2	0	0	n/a	1	1016	16
121.00	0	button press	n/a	n/a	n/a	n/a	n/a	51	n/a	n/a	-100
123.23	0	button press	n/a	n/a	n/a	n/a	n/a	54	n/a	n/a	-100
129.02	4.00	TV	0.96	4	2	1	0	n/a	1	1017	17
129.98	0	button press	n/a	n/a	n/a	n/a	n/a	51	n/a	n/a	-100
131.15	0	button press	n/a	n/a	n/a	n/a	n/a	54	n/a	n/a	-100
131.58	0	button press	n/a	n/a	n/a	n/a	n/a	54	n/a	n/a	-100
135.53	4.00	VT	0.85	2	2	0	1	n/a	1	1018	18
136.38	0	button press	n/a	n/a	n/a	n/a	n/a	50	n/a	n/a	-100
139.28	0	button press	n/a	n/a	n/a	n/a	n/a	54	n/a	n/a	-100
141.57	4.00	VT	0.95	2	2	0	1	n/a	1	1019	19
142.51	0	button press	n/a	n/a	n/a	n/a	n/a	50	n/a	n/a	-100
143.80	0	button press	n/a	n/a	n/a	n/a	n/a	55	n/a	n/a	-100
144.20	0	button press	n/a	n/a	n/a	n/a	n/a	55	n/a	n/a	-100
144.87	0	button press	n/a	n/a	n/a	n/a	n/a	55	n/a	n/a	-100
145.18	0	button press	n/a	n/a	n/a	n/a	n/a	55	n/a	n/a	-100
149.88	4.00	VV	1.22	2	2	0	0	n/a	1	1020	20
151.10	0	button press	n/a	n/a	n/a	n/a	n/a	51	n/a	n/a	-100
152.57	0	button press	n/a	n/a	n/a	n/a	n/a	55	n/a	n/a	-100
155.72	4.00	VV	1.02	4	2	0	0	n/a	1	1021	21
156.73	0	button press	n/a	n/a	n/a	n/a	n/a	51	n/a	n/a	-100
158.10	0	button press	n/a	n/a	n/a	n/a	n/a	55	n/a	n/a	-100
158.83	0	button press	n/a	n/a	n/a	n/a	n/a	54	n/a	n/a	-100
161.42	4.00	TT	0.85	6	2	1	1	n/a	1	1022	22
162.27	0	button press	n/a	n/a	n/a	n/a	n/a	50	n/a	n/a	-100
163.12	0	button press	n/a	n/a	n/a	n/a	n/a	54	n/a	n/a	-100
163.43	0	button press	n/a	n/a	n/a	n/a	n/a	54	n/a	n/a	-100
169.62	4.00	TV	1.15	3	2	1	0	n/a	1	1023	23
170.77	0	button press	n/a	n/a	n/a	n/a	n/a	51	n/a	n/a	-100
171.60	0	button press	n/a	n/a	n/a	n/a	n/a	55	n/a	n/a	-100
176.53	4.00	VV	0.98	4	2	0	0	n/a	1	1024	24
177.52	0	button press	n/a	n/a	n/a	n/a	n/a	51	n/a	n/a	-100
178.50	0	button press	n/a	n/a	n/a	n/a	n/a	54	n/a	n/a	-100
178.83	0	button press	n/a	n/a	n/a	n/a	n/a	54	n/a	n/a	-100
179.12	0	button press	n/a	n/a	n/a	n/a	n/a	54	n/a	n/a	-100
183.07	4.00	TT	0.87	6	2	1	1	n/a	1	1025	25
183.93	0	button press	n/a	n/a	n/a	n/a	n/a	50	n/a	n/a	-100
184.58	0	button press	n/a	n/a	n/a	n/a	n/a	54	n/a	n/a	-100
184.97	0	button press	n/a	n/a	n/a	n/a	n/a	54	n/a	n/a	-100
189.80	4.00	TV	1.08	6	2	1	0	n/a	1	1026	26
190.88	0	button press	n/a	n/a	n/a	n/a	n/a	51	n/a	n/a	-100
191.90	0	button press	n/a	n/a	n/a	n/a	n/a	54	n/a	n/a	-100
194.80	5.00	instructions	n/a	n/a	1	n/a	n/a	n/a	n/a	n/a	n/a
206.92	4.00	YY	0.90	6	1	1	1	n/a	0	1027	27
207.82	0	button press	n/a	n/a	n/a	n/a	n/a	51	n/a	n/a	-100
208.76	0	button press	n/a	n/a	n/a	n/a	n/a	54	n/a	n/a	-100
214.27	4.00	NY	1.02	4	1	0	1	n/a	1	1028	28
215.28	0	button press	n/a	n/a	n/a	n/a	n/a	51	n/a	n/a	-100
216.42	0	button press	n/a	n/a	n/a	n/a	n/a	54	n/a	n/a	-100
216.77	0	button press	n/a	n/a	n/a	n/a	n/a	54	n/a	n/a	-100
222.67	4.00	YY	0.88	6	1	1	1	n/a	1	1029	29
223.55	0	button press	n/a	n/a	n/a	n/a	n/a	51	n/a	n/a	-100
224.48	0	button press	n/a	n/a	n/a	n/a	n/a	54	n/a	n/a	-100
224.78	0	button press	n/a	n/a	n/a	n/a	n/a	54	n/a	n/a	-100
225.03	0	button press	n/a	n/a	n/a	n/a	n/a	54	n/a	n/a	-100
225.60	0	button press	n/a	n/a	n/a	n/a	n/a	54	n/a	n/a	-100
231.25	4.00	YY	0.88	5	1	1	1	n/a	1	1030	30
232.13	0	button press	n/a	n/a	n/a	n/a	n/a	51	n/a	n/a	-100
233.47	0	button press	n/a	n/a	n/a	n/a	n/a	54	n/a	n/a	-100
237.98	4.00	NY	1.15	3	1	0	1	n/a	1	1031	31
239.13	0	button press	n/a	n/a	n/a	n/a	n/a	51	n/a	n/a	-100
240.25	0	button press	n/a	n/a	n/a	n/a	n/a	55	n/a	n/a	-100
244.30	4.00	YY	1.48	2	1	1	1	n/a	1	1032	32
245.78	0	button press	n/a	n/a	n/a	n/a	n/a	51	n/a	n/a	-100
248.03	0	button press	n/a	n/a	n/a	n/a	n/a	55	n/a	n/a	-100
253.02	4.00	NN	1.32	2	1	0	0	n/a	1	1033	33
254.02	0	button press	n/a	n/a	n/a	n/a	n/a	54	n/a	n/a	-100
254.33	0	button press	n/a	n/a	n/a	n/a	n/a	50	n/a	n/a	-100
261.77	4.00	YY	0.85	6	1	1	1	n/a	1	1034	34
262.61	0	button press	n/a	n/a	n/a	n/a	n/a	51	n/a	n/a	-100
263.65	0	button press	n/a	n/a	n/a	n/a	n/a	54	n/a	n/a	-100
264.05	0	button press	n/a	n/a	n/a	n/a	n/a	54	n/a	n/a	-100
268.32	4.00	YY	0.98	5	1	1	1	n/a	1	1035	35
269.30	0	button press	n/a	n/a	n/a	n/a	n/a	51	n/a	n/a	-100
270.58	0	button press	n/a	n/a	n/a	n/a	n/a	54	n/a	n/a	-100
276.75	4.00	YY	1.00	4	1	1	1	n/a	1	1036	36
277.75	0	button press	n/a	n/a	n/a	n/a	n/a	51	n/a	n/a	-100
278.98	0	button press	n/a	n/a	n/a	n/a	n/a	54	n/a	n/a	-100
279.37	0	button press	n/a	n/a	n/a	n/a	n/a	54	n/a	n/a	-100
279.72	0	button press	n/a	n/a	n/a	n/a	n/a	54	n/a	n/a	-100
283.25	4.00	NN	1.27	4	1	0	0	n/a	1	1037	37
284.52	0	button press	n/a	n/a	n/a	n/a	n/a	50	n/a	n/a	-100
285.32	0	button press	n/a	n/a	n/a	n/a	n/a	54	n/a	n/a	-100
285.73	0	button press	n/a	n/a	n/a	n/a	n/a	54	n/a	n/a	-100
291.67	4.00	YN	1.30	2	1	1	0	n/a	1	1038	38
292.97	0	button press	n/a	n/a	n/a	n/a	n/a	50	n/a	n/a	-100
293.87	0	button press	n/a	n/a	n/a	n/a	n/a	55	n/a	n/a	-100
294.23	0	button press	n/a	n/a	n/a	n/a	n/a	55	n/a	n/a	-100
294.52	0	button press	n/a	n/a	n/a	n/a	n/a	55	n/a	n/a	-100
294.87	0	button press	n/a	n/a	n/a	n/a	n/a	55	n/a	n/a	-100
298.27	4.00	NN	1.10	4	1	0	0	n/a	1	1039	39
299.37	0	button press	n/a	n/a	n/a	n/a	n/a	50	n/a	n/a	-100
300.08	0	button press	n/a	n/a	n/a	n/a	n/a	54	n/a	n/a	-100
300.53	0	button press	n/a	n/a	n/a	n/a	n/a	54	n/a	n/a	-100
304.45	4.00	NN	1.05	6	1	0	0	n/a	1	1040	40
305.50	0	button press	n/a	n/a	n/a	n/a	n/a	50	n/a	n/a	-100
310.12	4.00	YN	0.91	3	1	1	0	n/a	1	1041	41
311.03	0	button press	n/a	n/a	n/a	n/a	n/a	50	n/a	n/a	-100
312.32	0	button press	n/a	n/a	n/a	n/a	n/a	55	n/a	n/a	-100
313.30	0	button press	n/a	n/a	n/a	n/a	n/a	55	n/a	n/a	-100
316.30	4.00	YY	1.27	1	1	1	1	n/a	1	1042	42
317.57	0	button press	n/a	n/a	n/a	n/a	n/a	51	n/a	n/a	-100
318.68	0	button press	n/a	n/a	n/a	n/a	n/a	55	n/a	n/a	-100
324.75	4.00	NN	1.07	3	1	0	0	n/a	1	1043	43
325.82	0	button press	n/a	n/a	n/a	n/a	n/a	50	n/a	n/a	-100
326.63	0	button press	n/a	n/a	n/a	n/a	n/a	55	n/a	n/a	-100
327.07	0	button press	n/a	n/a	n/a	n/a	n/a	55	n/a	n/a	-100
333.05	4.00	NN	0.83	6	1	0	0	n/a	1	1044	44
333.88	0	button press	n/a	n/a	n/a	n/a	n/a	50	n/a	n/a	-100
334.95	0	button press	n/a	n/a	n/a	n/a	n/a	54	n/a	n/a	-100
335.25	0	button press	n/a	n/a	n/a	n/a	n/a	54	n/a	n/a	-100
335.53	0	button press	n/a	n/a	n/a	n/a	n/a	54	n/a	n/a	-100
335.80	0	button press	n/a	n/a	n/a	n/a	n/a	54	n/a	n/a	-100
336.05	0	button press	n/a	n/a	n/a	n/a	n/a	54	n/a	n/a	-100
341.17	4.00	NN	1.02	6	1	0	0	n/a	1	1045	45
342.18	0	button press	n/a	n/a	n/a	n/a	n/a	50	n/a	n/a	-100
343.12	0	button press	n/a	n/a	n/a	n/a	n/a	54	n/a	n/a	-100
349.82	4.00	YY	0.95	6	1	1	1	n/a	1	1046	46
350.77	0	button press	n/a	n/a	n/a	n/a	n/a	51	n/a	n/a	-100
351.80	0	button press	n/a	n/a	n/a	n/a	n/a	54	n/a	n/a	-100
352.23	0	button press	n/a	n/a	n/a	n/a	n/a	54	n/a	n/a	-100
352.85	0	button press	n/a	n/a	n/a	n/a	n/a	54	n/a	n/a	-100
356.93	4.00	YY	1.28	3	1	1	1	n/a	1	1047	47
358.22	0	button press	n/a	n/a	n/a	n/a	n/a	51	n/a	n/a	-100
358.90	0	button press	n/a	n/a	n/a	n/a	n/a	55	n/a	n/a	-100
359.28	0	button press	n/a	n/a	n/a	n/a	n/a	55	n/a	n/a	-100
359.67	0	button press	n/a	n/a	n/a	n/a	n/a	55	n/a	n/a	-100
363.97	4.00	YY	0.97	5	1	1	1	n/a	1	1048	48
364.93	0	button press	n/a	n/a	n/a	n/a	n/a	51	n/a	n/a	-100
370.23	4.00	NN	0.85	6	1	0	0	n/a	1	1049	49
371.08	0	button press	n/a	n/a	n/a	n/a	n/a	50	n/a	n/a	-100
372.13	0	button press	n/a	n/a	n/a	n/a	n/a	54	n/a	n/a	-100
372.40	0	button press	n/a	n/a	n/a	n/a	n/a	54	n/a	n/a	-100
372.68	0	button press	n/a	n/a	n/a	n/a	n/a	54	n/a	n/a	-100
372.95	0	button press	n/a	n/a	n/a	n/a	n/a	54	n/a	n/a	-100
373.22	0	button press	n/a	n/a	n/a	n/a	n/a	54	n/a	n/a	-100
377.03	4.00	NY	1.05	2	1	0	1	n/a	1	1050	50
378.08	0	button press	n/a	n/a	n/a	n/a	n/a	51	n/a	n/a	-100
379.66	0	button press	n/a	n/a	n/a	n/a	n/a	54	n/a	n/a	-100
385.72	4.00	NN	0.95	6	1	0	0	n/a	1	1051	51
386.67	0	button press	n/a	n/a	n/a	n/a	n/a	50	n/a	n/a	-100
387.65	0	button press	n/a	n/a	n/a	n/a	n/a	54	n/a	n/a	-100
387.97	0	button press	n/a	n/a	n/a	n/a	n/a	54	n/a	n/a	-100
388.80	0	button press	n/a	n/a	n/a	n/a	n/a	54	n/a	n/a	-100
394.52	4.00	NN	1.12	6	1	0	0	n/a	1	1052	52
395.63	0	button press	n/a	n/a	n/a	n/a	n/a	50	n/a	n/a	-100
397.00	0	button press	n/a	n/a	n/a	n/a	n/a	54	n/a	n/a	-100
397.63	0	button press	n/a	n/a	n/a	n/a	n/a	54	n/a	n/a	-100
399.52	5.00	instructions	n/a	n/a	0	n/a	n/a	n/a	n/a	n/a	n/a
410.53	4.00	AA	1.28	1	0	0	0	n/a	0	1053	53
411.82	0	button press	n/a	n/a	n/a	n/a	n/a	50	n/a	n/a	-100
412.53	0	button press	n/a	n/a	n/a	n/a	n/a	55	n/a	n/a	-100
412.92	0	button press	n/a	n/a	n/a	n/a	n/a	55	n/a	n/a	-100
413.22	0	button press	n/a	n/a	n/a	n/a	n/a	55	n/a	n/a	-100
413.48	0	button press	n/a	n/a	n/a	n/a	n/a	55	n/a	n/a	-100
418.33	4.00	CC	1.35	1	0	1	1	n/a	0	1054	54
419.68	0	button press	n/a	n/a	n/a	n/a	n/a	51	n/a	n/a	-100
420.35	0	button press	n/a	n/a	n/a	n/a	n/a	55	n/a	n/a	-100
426.07	4.00	CA	0.80	3	0	1	0	n/a	0	1055	55
426.87	0	button press	n/a	n/a	n/a	n/a	n/a	50	n/a	n/a	-100
432.40	4.00	AA	0.87	4	0	0	0	n/a	0	1056	56
433.27	0	button press	n/a	n/a	n/a	n/a	n/a	50	n/a	n/a	-100
434.27	0	button press	n/a	n/a	n/a	n/a	n/a	54	n/a	n/a	-100
434.72	0	button press	n/a	n/a	n/a	n/a	n/a	54	n/a	n/a	-100
439.48	4.00	AA	0.80	5	0	0	0	n/a	0	1057	57
440.28	0	button press	n/a	n/a	n/a	n/a	n/a	50	n/a	n/a	-100
441.58	0	button press	n/a	n/a	n/a	n/a	n/a	54	n/a	n/a	-100
446.12	4.00	CC	0.87	3	0	1	1	n/a	0	1058	58
446.98	0	button press	n/a	n/a	n/a	n/a	n/a	51	n/a	n/a	-100
448.02	0	button press	n/a	n/a	n/a	n/a	n/a	54	n/a	n/a	-100
448.38	0	button press	n/a	n/a	n/a	n/a	n/a	54	n/a	n/a	-100
453.60	4.00	CA	0.95	1	0	1	0	n/a	0	1059	59
454.55	0	button press	n/a	n/a	n/a	n/a	n/a	50	n/a	n/a	-100
455.46	0	button press	n/a	n/a	n/a	n/a	n/a	55	n/a	n/a	-100
455.85	0	button press	n/a	n/a	n/a	n/a	n/a	55	n/a	n/a	-100
456.37	0	button press	n/a	n/a	n/a	n/a	n/a	55	n/a	n/a	-100
460.08	4.00	AC	0.88	1	0	0	1	n/a	0	1060	60
460.97	0	button press	n/a	n/a	n/a	n/a	n/a	51	n/a	n/a	-100
461.78	0	button press	n/a	n/a	n/a	n/a	n/a	55	n/a	n/a	-100
462.27	0	button press	n/a	n/a	n/a	n/a	n/a	55	n/a	n/a	-100
462.57	0	button press	n/a	n/a	n/a	n/a	n/a	55	n/a	n/a	-100
462.87	0	button press	n/a	n/a	n/a	n/a	n/a	55	n/a	n/a	-100
468.22	4.00	AC	1.03	1	0	0	1	n/a	0	1061	61
469.25	0	button press	n/a	n/a	n/a	n/a	n/a	51	n/a	n/a	-100
469.83	0	button press	n/a	n/a	n/a	n/a	n/a	55	n/a	n/a	-100
470.25	0	button press	n/a	n/a	n/a	n/a	n/a	55	n/a	n/a	-100
474.52	4.00	AA	0.87	5	0	0	0	n/a	0	1062	62
475.38	0	button press	n/a	n/a	n/a	n/a	n/a	50	n/a	n/a	-100
476.40	0	button press	n/a	n/a	n/a	n/a	n/a	54	n/a	n/a	-100
476.68	0	button press	n/a	n/a	n/a	n/a	n/a	54	n/a	n/a	-100
477.40	0	button press	n/a	n/a	n/a	n/a	n/a	54	n/a	n/a	-100
480.23	4.00	AA	0.90	4	0	0	0	n/a	0	1063	63
481.13	0	button press	n/a	n/a	n/a	n/a	n/a	50	n/a	n/a	-100
488.62	4.00	CC	0.89	6	0	1	1	n/a	0	1064	64
489.50	0	button press	n/a	n/a	n/a	n/a	n/a	51	n/a	n/a	-100
490.45	0	button press	n/a	n/a	n/a	n/a	n/a	54	n/a	n/a	-100
490.80	0	button press	n/a	n/a	n/a	n/a	n/a	54	n/a	n/a	-100
491.20	0	button press	n/a	n/a	n/a	n/a	n/a	54	n/a	n/a	-100
496.83	4.00	AA	1.03	4	0	0	0	n/a	0	1065	65
497.87	0	button press	n/a	n/a	n/a	n/a	n/a	50	n/a	n/a	-100
498.75	0	button press	n/a	n/a	n/a	n/a	n/a	54	n/a	n/a	-100
499.10	0	button press	n/a	n/a	n/a	n/a	n/a	54	n/a	n/a	-100
503.32	4.00	AC	1.20	1	0	0	1	n/a	0	1066	66
504.51	0	button press	n/a	n/a	n/a	n/a	n/a	51	n/a	n/a	-100
505.18	0	button press	n/a	n/a	n/a	n/a	n/a	55	n/a	n/a	-100
505.55	0	button press	n/a	n/a	n/a	n/a	n/a	55	n/a	n/a	-100
505.82	0	button press	n/a	n/a	n/a	n/a	n/a	55	n/a	n/a	-100
506.12	0	button press	n/a	n/a	n/a	n/a	n/a	55	n/a	n/a	-100
506.53	0	button press	n/a	n/a	n/a	n/a	n/a	55	n/a	n/a	-100
508.92	4.00	AA	0.88	3	0	0	0	n/a	0	1067	67
509.80	0	button press	n/a	n/a	n/a	n/a	n/a	50	n/a	n/a	-100
511.13	0	button press	n/a	n/a	n/a	n/a	n/a	55	n/a	n/a	-100
511.65	0	button press	n/a	n/a	n/a	n/a	n/a	55	n/a	n/a	-100
515.83	4.00	CC	1.03	1	0	1	1	n/a	0	1068	68
516.87	0	button press	n/a	n/a	n/a	n/a	n/a	51	n/a	n/a	-100
517.75	0	button press	n/a	n/a	n/a	n/a	n/a	55	n/a	n/a	-100
523.78	4.00	CA	0.93	3	0	1	0	n/a	0	1069	69
524.72	0	button press	n/a	n/a	n/a	n/a	n/a	50	n/a	n/a	-100
525.73	0	button press	n/a	n/a	n/a	n/a	n/a	54	n/a	n/a	-100
526.10	0	button press	n/a	n/a	n/a	n/a	n/a	54	n/a	n/a	-100
532.43	4.00	CA	1.01	3	0	1	0	n/a	0	1070	70
533.45	0	button press	n/a	n/a	n/a	n/a	n/a	50	n/a	n/a	-100
538.35	4.00	CA	1.02	3	0	1	0	n/a	0	1071	71
539.37	0	button press	n/a	n/a	n/a	n/a	n/a	50	n/a	n/a	-100
540.33	0	button press	n/a	n/a	n/a	n/a	n/a	55	n/a	n/a	-100
547.35	4.00	CA	1.05	1	0	1	0	n/a	0	1072	72
548.40	0	button press	n/a	n/a	n/a	n/a	n/a	50	n/a	n/a	-100
549.90	0	button press	n/a	n/a	n/a	n/a	n/a	55	n/a	n/a	-100
550.30	0	button press	n/a	n/a	n/a	n/a	n/a	55	n/a	n/a	-100
556.00	4.00	CA	0.88	2	0	1	0	n/a	0	1073	73
556.88	0	button press	n/a	n/a	n/a	n/a	n/a	50	n/a	n/a	-100
557.63	0	button press	n/a	n/a	n/a	n/a	n/a	55	n/a	n/a	-100
564.07	4.00	AA	0.83	3	0	0	0	n/a	0	1074	74
564.90	0	button press	n/a	n/a	n/a	n/a	n/a	50	n/a	n/a	-100
565.98	0	button press	n/a	n/a	n/a	n/a	n/a	54	n/a	n/a	-100
570.42	4.00	CC	0.82	6	0	1	1	n/a	0	1075	75
571.23	0	button press	n/a	n/a	n/a	n/a	n/a	51	n/a	n/a	-100
572.18	0	button press	n/a	n/a	n/a	n/a	n/a	54	n/a	n/a	-100
578.45	4.00	AC	0.98	3	0	0	1	n/a	0	1076	76
579.43	0	button press	n/a	n/a	n/a	n/a	n/a	51	n/a	n/a	-100
580.12	0	button press	n/a	n/a	n/a	n/a	n/a	55	n/a	n/a	-100
581.17	0	button press	n/a	n/a	n/a	n/a	n/a	55	n/a	n/a	-100
585.27	4.00	AC	0.97	2	0	0	1	n/a	0	1077	77
586.23	0	button press	n/a	n/a	n/a	n/a	n/a	51	n/a	n/a	-100
587.15	0	button press	n/a	n/a	n/a	n/a	n/a	55	n/a	n/a	-100
587.88	0	button press	n/a	n/a	n/a	n/a	n/a	55	n/a	n/a	-100
594.38	4.00	CC	1.27	6	0	1	1	n/a	0	1078	78
595.65	0	button press	n/a	n/a	n/a	n/a	n/a	51	n/a	n/a	-100
596.25	0	button press	n/a	n/a	n/a	n/a	n/a	54	n/a	n/a	-100
596.57	0	button press	n/a	n/a	n/a	n/a	n/a	54	n/a	n/a	-100
596.90	0	button press	n/a	n/a	n/a	n/a	n/a	54	n/a	n/a	-100
